subID,block,trial,targetImg,targetIdx,cue_rgb,cue_string,congruent,respFrame,response,accuracy,RT,confResp,confRT,flickerDuration,noise1frames,signal1frames,noise2frames,coherence,catch_trial
 28, 1, 1, S3-12.jpg, 2, [10 144 240], blue, 1, 355, 2, 1, 4.1637, 3, 1.8570, 4.1666,108,23,87,0.5894,0
 28, 1, 2, S4-20.jpg, 1, [240 37 33], red, NaN, 410, 1, 1, 4.8166, 4, 1.3415, 4.8193,96,35,81,0.5628,0
 28, 1, 3, S3-12.jpg, 2, [10 144 240], blue, 1, 297, 2, 1, 3.4865, 3, 0.7864, 3.4904,81,58,103,0.5894,0
 28, 1, 4, S4-20.jpg, 1, [240 239 10], yellow, 1, 405, 2, 0, 4.7758, 4, 0.8812, 4.7784,81,60,99,0.5628,0
 28, 1, 5, S4-20.jpg, 1, [240 37 33], red, NaN, 372, 2, 0, 4.3686, 3, 1.0433, 4.3734,79,33,102,0.5628,0
 28, 1, 6, S3-12.jpg, 2, [240 37 33], red, NaN, 300, 2, 1, 3.5236, 4, 0.3708, 3.5264,84,41,99,0.5894,0
 28, 1, 7, S3-12.jpg, 2, [240 37 33], red, NaN, 313, 2, 1, 3.6783, 3, 0.8893, 3.6804,82,30,79,0.5894,1
 28, 1, 8, S4-20.jpg, 1, [240 239 10], yellow, 1, 329, 2, 0, 3.8799, 3, 0.9758, 3.8822,86,47,121,0.5628,0
 28, 1, 9, S4-20.jpg, 1, [240 239 10], yellow, 1, 390, 2, 0, 4.5823, 3, 0.7433, 4.5845,108,25,94,0.5628,0
 28, 1, 10, S3-12.jpg, 2, [240 37 33], red, NaN, 392, 2, 1, 4.6050, 3, 0.3618, 4.6073,102,41,119,0.5894,1
 28, 1, 11, S4-20.jpg, 1, [10 144 240], blue, 0, 453, 1, 1, 5.3263, 3, 0.9637, 5.3281,87,27,91,0.5628,0
 28, 1, 12, S4-20.jpg, 1, [10 144 240], blue, 0, 441, 1, 1, 5.1845, 2, 2.2875, 5.1869,81,31,87,0.5628,0
 28, 1, 13, S4-20.jpg, 1, [240 239 10], yellow, 1, 467, 2, 0, 5.4952, 3, 0.3464, 5.4977,120,45,85,0.5628,0
 28, 1, 14, S4-20.jpg, 1, [240 239 10], yellow, 1, 473, 1, 1, 5.5640, 3, 1.6665, 5.5662,127,41,97,0.5628,0
 28, 1, 15, S4-20.jpg, 1, [240 239 10], yellow, 1, 390, 2, 0, 4.5852, 4, 0.2845, 4.5876,136,34,87,0.5628,0
 28, 1, 16, S3-12.jpg, 2, [10 144 240], blue, 1, 361, 1, 0, 4.2525, 3, 0.4332, 4.2546,83,28,81,0.5894,0
 28, 1, 17, S3-12.jpg, 2, [10 144 240], blue, 1, 405, 2, 1, 4.7832, 3, 0.4226, 4.7853,89,37,96,0.5894,0
 28, 1, 18, S3-12.jpg, 2, [10 144 240], blue, 1, 513, 1, 0, 6.0271, 3, 0.7736, 6.0295,95,34,79,0.5894,0
 28, 1, 19, S3-12.jpg, 2, [10 144 240], blue, 1, 490, 2, 1, 5.7741, 2, 0.3685, 5.7761,101,24,78,0.5894,0
 28, 1, 20, S3-12.jpg, 2, [10 144 240], blue, 1, 458, 2, 1, 5.4151, 3, 0.3220, 5.4171,77,39,81,0.5894,0
 28, 1, 21, S3-12.jpg, 2, [240 239 10], yellow, 0, 497, 2, 1, 5.8380, 4, 0.9941, 5.8402,195,42,80,0.5894,0
 28, 1, 22, S4-20.jpg, 1, [240 239 10], yellow, 1, 416, 1, 1, 4.8918, 3, 0.4992, 4.8941,77,49,90,0.5628,0
 28, 1, 23, S4-20.jpg, 1, [240 239 10], yellow, 1, 503, 2, 0, 5.9178, 3, 0.7917, 5.9199,80,43,90,0.5628,0
 28, 1, 24, S4-20.jpg, 1, [240 239 10], yellow, 1, 465, 1, 1, 5.4607, 3, 0.4196, 5.4632,95,57,84,0.5628,0
 28, 1, 25, S4-20.jpg, 1, [240 239 10], yellow, 1, 358, 2, 0, 4.2120, 4, 0.5830, 4.2144,81,25,81,0.5628,0
 28, 1, 26, S4-20.jpg, 1, [240 239 10], yellow, 1, 339, 1, 1, 3.9764, 4, 0.3488, 3.9788,77,64,78,0.5628,0
 28, 1, 27, S4-20.jpg, 1, [240 239 10], yellow, 1, 411, 1, 1, 4.8332, 3, 0.2464, 4.8356,80,38,81,0.5628,0
 28, 1, 28, S4-20.jpg, 1, [240 37 33], red, NaN, 396, 2, 0, 4.6534, 3, 0.6810, 4.6560,118,29,118,0.5628,0
 28, 1, 29, S4-20.jpg, 1, [240 239 10], yellow, 1, 305, 1, 1, 3.5863, 3, 0.5529, 3.5886,78,36,111,0.5628,0
 28, 1, 30, S4-20.jpg, 1, [10 144 240], blue, 0, 401, 1, 1, 4.7133, 3, 0.4625, 4.7158,79,26,81,0.5628,0
 28, 1, 31, S3-12.jpg, 2, [10 144 240], blue, 1, 481, 2, 1, 5.6503, 3, 0.3597, 5.6522,122,23,77,0.5894,0
 28, 1, 32, S4-20.jpg, 1, [240 239 10], yellow, 1, 426, 2, 0, 5.0096, 3, 0.4446, 5.0119,86,26,114,0.5628,1
 28, 1, 33, S3-12.jpg, 2, [240 37 33], red, NaN, NaN, 1, 0, 6.3821, 2, 0.8807, 6.3548,97,26,78,0.5894,0
 28, 1, 34, S4-20.jpg, 1, [240 239 10], yellow, 1, 513, 2, 0, 6.0303, 3, 0.8248, 6.0330,83,42,108,0.5628,0
 28, 1, 35, S3-12.jpg, 2, [240 239 10], yellow, 0, 384, 2, 1, 4.5116, 4, 0.4668, 4.5140,90,28,102,0.5894,0
 28, 1, 36, S4-20.jpg, 1, [240 239 10], yellow, 1, 388, 2, 0, 4.5643, 3, 1.0040, 4.5665,87,38,125,0.5628,0
 28, 1, 37, S3-12.jpg, 2, [240 239 10], yellow, 0, 493, 1, 0, 5.7964, 2, 0.3814, 5.7988,76,40,76,0.5894,0
 28, 1, 38, S4-20.jpg, 1, [240 239 10], yellow, 1, 524, 2, 0, 6.1547, 3, 0.4782, 6.1569,77,55,81,0.5628,0
 28, 1, 39, S3-12.jpg, 2, [10 144 240], blue, 1, 522, 2, 1, 6.1384, 3, 0.3479, 6.1407,92,31,77,0.5894,0
 28, 1, 40, S3-12.jpg, 2, [240 37 33], red, NaN, 494, 2, 1, 5.8125, 3, 0.7799, 5.8146,85,34,123,0.5894,0
 28, 1, 41, S3-12.jpg, 2, [10 144 240], blue, 1, 534, 2, 1, 6.2737, 3, 1.8514, 6.2757,85,39,116,0.5894,1
 28, 1, 42, S3-12.jpg, 2, [10 144 240], blue, 1, NaN, 2, 1, 6.4454, 2, 1.4583, 6.3506,105,26,108,0.5894,0
 28, 1, 43, S3-12.jpg, 2, [10 144 240], blue, 1, NaN, 2, 1, 6.5095, 4, 2.4535, 6.3471,79,66,104,0.5894,0
 28, 1, 44, S3-12.jpg, 2, [10 144 240], blue, 1, 494, 2, 1, 5.8081, 3, 0.7224, 5.8101,84,53,79,0.5894,0
 28, 1, 45, S4-20.jpg, 1, [240 239 10], yellow, 1, NaN, 1, 1, 6.7467, 3, 2.2706, 6.3513,94,45,75,0.5628,0
 28, 1, 46, S4-20.jpg, 1, [240 37 33], red, NaN, 247, 2, 0, 2.8979, 2, 0.4335, 2.9002,99,35,78,0.5628,0
 28, 1, 47, S3-12.jpg, 2, [10 144 240], blue, 1, 435, 1, 0, 5.1089, 3, 0.3619, 5.1109,88,40,95,0.5894,0
 28, 1, 48, S4-20.jpg, 1, [10 144 240], blue, 0, 482, 1, 1, 5.6667, 3, 1.3560, 5.6687,95,30,79,0.5628,0
 28, 1, 49, S4-20.jpg, 1, [240 239 10], yellow, 1, 378, 2, 0, 4.4744, 2, 0.8232, 4.4766,112,40,84,0.5628,1
 28, 1, 50, S3-12.jpg, 2, [10 144 240], blue, 1, 486, 2, 1, 5.7238, 2, 0.3378, 5.7261,78,27,114,0.5894,0
 28, 1, 51, S3-12.jpg, 2, [10 144 240], blue, 1, 424, 2, 1, 4.9993, 3, 0.1052, 5.0014,105,60,117,0.5894,0
 28, 1, 52, S4-20.jpg, 1, [240 37 33], red, NaN, 401, 1, 1, 4.7119, 3, 0.6359, 4.7142,84,30,130,0.5628,1
 28, 1, 53, S3-12.jpg, 2, [240 37 33], red, NaN, 457, 1, 0, 5.3658, 3, 0.5938, 5.3681,90,39,95,0.5894,0
 28, 1, 54, S3-12.jpg, 2, [240 37 33], red, NaN, 404, 2, 1, 4.7441, 4, 0.6906, 4.7465,81,26,78,0.5894,0
 28, 1, 55, S3-12.jpg, 2, [10 144 240], blue, 1, 402, 1, 0, 4.7297, 3, 0.4647, 4.7317,142,37,112,0.5894,0
 28, 1, 56, S3-12.jpg, 2, [10 144 240], blue, 1, 439, 2, 1, 5.1516, 3, 1.1236, 5.1538,82,40,93,0.5894,0
 28, 1, 57, S3-12.jpg, 2, [10 144 240], blue, 1, 441, 1, 0, 5.1979, 3, 0.3946, 5.2000,80,68,76,0.5894,0
 28, 1, 58, S3-12.jpg, 2, [10 144 240], blue, 1, 456, 2, 1, 5.3523, 3, 0.5658, 5.3546,101,29,100,0.5894,0
 28, 1, 59, S3-12.jpg, 2, [240 239 10], yellow, 0, 504, 2, 1, 5.9335, 4, 0.4829, 5.9357,107,143,82,0.5894,0
 28, 1, 60, S4-20.jpg, 1, [240 239 10], yellow, 1, 491, 2, 0, 5.7728, 3, 0.2287, 5.7751,119,32,81,0.5628,0
 28, 1, 61, S4-20.jpg, 1, [240 239 10], yellow, 1, 368, 1, 1, 4.3237, 3, 0.7559, 4.3260,79,26,113,0.5628,0
 28, 1, 62, S4-20.jpg, 1, [10 144 240], blue, 0, 468, 1, 1, 5.4965, 2, 0.4578, 5.4984,138,26,115,0.5628,1
 28, 1, 63, S3-12.jpg, 2, [10 144 240], blue, 1, 444, 2, 1, 5.2208, 3, 0.7993, 5.2231,94,45,91,0.5894,0
 28, 1, 64, S4-20.jpg, 1, [240 37 33], red, NaN, 420, 2, 0, 4.9326, 3, 0.2670, 4.9350,87,32,124,0.5628,0
 28, 1, 65, S4-20.jpg, 1, [240 239 10], yellow, 1, 345, 1, 1, 4.0585, 3, 0.6794, 4.0608,85,25,80,0.5628,0
 28, 1, 66, S4-20.jpg, 1, [10 144 240], blue, 0, 477, 2, 0, 5.6101, 3, 1.5969, 5.6123,82,24,89,0.5628,0
 28, 1, 67, S3-12.jpg, 2, [240 37 33], red, NaN, 380, 1, 0, 4.4661, 3, 0.5711, 4.4684,78,46,77,0.5894,0
 28, 1, 68, S3-12.jpg, 2, [10 144 240], blue, 1, 436, 1, 0, 5.1547, 3, 2.2669, 5.1565,81,32,106,0.5894,0
 28, 1, 69, S4-20.jpg, 1, [240 37 33], red, NaN, 409, 1, 1, 4.8078, 2, 0.1900, 4.8101,116,54,80,0.5628,0
 28, 1, 70, S3-12.jpg, 2, [240 37 33], red, NaN, 362, 2, 1, 4.2538, 3, 1.1032, 4.2562,79,24,94,0.5894,0
 28, 1, 71, S4-20.jpg, 1, [240 239 10], yellow, 1, 420, 2, 0, 4.9342, 3, 0.4898, 4.9365,123,85,85,0.5628,0
 28, 1, 72, S3-12.jpg, 2, [10 144 240], blue, 1, 377, 2, 1, 4.4333, 3, 0.4685, 4.4356,93,55,195,0.5894,0
 28, 1, 73, S4-20.jpg, 1, [240 37 33], red, NaN, 371, 1, 1, 4.3606, 4, 0.2858, 4.3625,79,24,100,0.5628,1
 28, 1, 74, S4-20.jpg, 1, [10 144 240], blue, 0, 375, 2, 0, 4.4025, 4, 0.9906, 4.4048,84,26,95,0.5628,0
 28, 1, 75, S3-12.jpg, 2, [240 239 10], yellow, 0, 395, 2, 1, 4.6403, 3, 0.3362, 4.6425,100,58,112,0.5894,1
 28, 1, 76, S3-12.jpg, 2, [240 37 33], red, NaN, 393, 1, 0, 4.6224, 2, 0.3677, 4.6248,99,29,83,0.5894,0
 28, 1, 77, S3-12.jpg, 2, [10 144 240], blue, 1, 356, 1, 0, 4.1793, 2, 0.7173, 4.1816,86,81,120,0.5894,0
 28, 1, 78, S4-20.jpg, 1, [240 239 10], yellow, 1, 479, 2, 0, 5.6527, 3, 0.0015, 5.6550,91,78,76,0.5628,0
 28, 1, 79, S3-12.jpg, 2, [10 144 240], blue, 1, 501, 2, 1, 5.8859, 2, 0.9756, 5.8883,137,30,85,0.5894,1
 28, 1, 80, S4-20.jpg, 1, [240 239 10], yellow, 1, 406, 1, 1, 4.7712, 3, 0.0931, 4.7735,77,27,80,0.5628,0
 28, 1, 81, S4-20.jpg, 1, [240 239 10], yellow, 1, 417, 1, 1, 4.9025, 3, 0.1961, 4.9046,78,72,83,0.5628,0
 28, 1, 82, S3-12.jpg, 2, [240 239 10], yellow, 0, 501, 2, 1, 5.8910, 3, 0.3370, 5.8932,96,64,85,0.5894,0
 28, 1, 83, S3-12.jpg, 2, [10 144 240], blue, 1, NaN, 1, 0, 6.6703, 2, 0.7783, 6.3519,89,32,109,0.5894,0
 28, 1, 84, S3-12.jpg, 2, [10 144 240], blue, 1, 390, 2, 1, 4.5791, 3, 0.4898, 4.5813,82,35,93,0.5894,1
 28, 1, 85, S3-12.jpg, 2, [10 144 240], blue, 1, 295, 2, 1, 3.4714, 4, 0.0014, 3.4737,79,29,78,0.5894,0
 28, 1, 86, S3-12.jpg, 2, [240 37 33], red, NaN, 352, 1, 0, 4.1483, 3, 0.8293, 4.1506,75,30,82,0.5894,0
 28, 1, 87, S3-12.jpg, 2, [10 144 240], blue, 1, 397, 1, 0, 4.6581, 3, 0.1821, 4.6604,75,25,91,0.5894,0
 28, 1, 88, S3-12.jpg, 2, [10 144 240], blue, 1, 420, 1, 0, 4.9323, 2, 0.1400, 4.9346,114,50,80,0.5894,0
 28, 1, 89, S3-12.jpg, 2, [240 239 10], yellow, 0, 535, 2, 1, 6.3032, 2, 0.5553, 6.3057,97,65,113,0.5894,0
 28, 1, 90, S3-12.jpg, 2, [10 144 240], blue, 1, 392, 1, 0, 4.6050, 3, 0.2217, 4.6072,117,36,77,0.5894,0
 28, 1, 91, S3-12.jpg, 2, [10 144 240], blue, 1, 361, 2, 1, 4.2455, 2, 0.2689, 4.2478,103,34,80,0.5894,0
 28, 1, 92, S3-12.jpg, 2, [240 37 33], red, NaN, 430, 1, 0, 5.0785, 3, 0.1677, 5.0808,100,62,96,0.5894,0
 28, 1, 93, S4-20.jpg, 1, [240 239 10], yellow, 1, 443, 1, 1, 5.2054, 3, 0.0608, 5.2077,91,67,88,0.5628,1
 28, 1, 94, S4-20.jpg, 1, [10 144 240], blue, 0, 375, 2, 0, 4.4026, 3, 0.9209, 4.4048,82,23,91,0.5628,0
 28, 1, 95, S3-12.jpg, 2, [10 144 240], blue, 1, 423, 2, 1, 4.9657, 3, 0.1377, 4.9677,95,25,84,0.5894,0
 28, 1, 96, S3-12.jpg, 2, [10 144 240], blue, 1, 475, 1, 0, 5.5970, 3, 0.2661, 5.5990,106,39,107,0.5894,0
 28, 1, 97, S3-12.jpg, 2, [240 239 10], yellow, 0, 505, 2, 1, 5.9279, 3, 0.3045, 5.9300,84,31,80,0.5894,0
 28, 1, 98, S3-12.jpg, 2, [240 239 10], yellow, 0, 484, 2, 1, 5.6926, 2, 0.3963, 5.6949,84,86,84,0.5894,1
 28, 1, 99, S4-20.jpg, 1, [240 239 10], yellow, 1, 395, 2, 0, 4.6434, 3, 0.1005, 4.6456,85,24,101,0.5628,0
 28, 1, 100, S4-20.jpg, 1, [240 239 10], yellow, 1, 402, 2, 0, 4.7165, 2, 0.1105, 4.7188,107,65,90,0.5628,0
 28, 1, 101, S3-12.jpg, 2, [240 37 33], red, NaN, 342, 1, 0, 4.0234, 3, 0.1279, 4.0256,90,47,82,0.5894,0
 28, 1, 102, S4-20.jpg, 1, [240 239 10], yellow, 1, 482, 2, 0, 5.6644, 2, 1.0924, 5.6668,103,31,96,0.5628,0
 28, 1, 103, S4-20.jpg, 1, [240 239 10], yellow, 1, 497, 2, 0, 5.8394, 3, 0.2316, 5.8417,89,43,88,0.5628,0
 28, 1, 104, S3-12.jpg, 2, [10 144 240], blue, 1, NaN, 2, 1, 6.6034, 2, 0.3901, 6.3685,87,31,75,0.5894,0
 28, 1, 105, S4-20.jpg, 1, [10 144 240], blue, 0, 377, 1, 1, 4.4323, 2, 0.2340, 4.4346,78,27,76,0.5628,0
 28, 1, 106, S4-20.jpg, 1, [240 239 10], yellow, 1, 451, 2, 0, 5.2988, 3, 0.0363, 5.3011,75,83,134,0.5628,0
 28, 1, 107, S3-12.jpg, 2, [10 144 240], blue, 1, 360, 1, 0, 4.2282, 3, 0.3598, 4.2302,104,73,86,0.5894,0
 28, 1, 108, S4-20.jpg, 1, [240 239 10], yellow, 1, 433, 2, 0, 5.0919, 2, 0.2753, 5.0940,78,88,93,0.5628,0
 28, 1, 109, S4-20.jpg, 1, [240 239 10], yellow, 1, 442, 2, 0, 5.1886, 3, 0.3629, 5.1907,115,38,77,0.5628,0
 28, 1, 110, S3-12.jpg, 2, [240 239 10], yellow, 0, 387, 2, 1, 4.5486, 3, 0.2981, 4.5506,77,31,135,0.5894,0
 28, 1, 111, S4-20.jpg, 1, [240 37 33], red, NaN, 391, 1, 1, 4.5900, 2, 0.7698, 4.5919,76,62,97,0.5628,0
 28, 1, 112, S4-20.jpg, 1, [240 239 10], yellow, 1, 392, 2, 0, 4.5996, 4, 0.2291, 4.6019,89,74,142,0.5628,0
 28, 1, 113, S4-20.jpg, 1, [240 239 10], yellow, 1, 520, 1, 1, 6.1284, 3, 0.2795, 6.1306,98,23,92,0.5628,0
 28, 1, 114, S4-20.jpg, 1, [240 239 10], yellow, 1, NaN, 2, 0, 6.4847, 3, 0.4172, 6.3509,93,91,89,0.5628,0
 28, 1, 115, S4-20.jpg, 1, [10 144 240], blue, 0, NaN, 2, 0, 6.4111, 3, 0.6281, 6.3568,113,77,79,0.5628,0
 28, 1, 116, S3-12.jpg, 2, [10 144 240], blue, 1, 429, 1, 0, 5.0377, 2, 0.2217, 5.0400,76,24,86,0.5894,0
 28, 1, 117, S3-12.jpg, 2, [10 144 240], blue, 1, 435, 1, 0, 5.1147, 3, 0.1407, 5.1170,80,24,83,0.5894,0
 28, 1, 118, S4-20.jpg, 1, [240 239 10], yellow, 1, 508, 1, 1, 5.9719, 3, 0.6390, 5.9741,134,25,94,0.5628,0
 28, 1, 119, S4-20.jpg, 1, [10 144 240], blue, 0, 401, 2, 0, 4.7088, 3, 0.5440, 4.7108,88,42,89,0.5628,0
 28, 1, 120, S4-20.jpg, 1, [240 239 10], yellow, 1, 506, 1, 1, 5.9418, 2, 0.7284, 5.9441,195,25,103,0.5628,0
 28, 1, 121, S4-20.jpg, 1, [240 239 10], yellow, 1, 363, 2, 0, 4.2681, 3, 1.0875, 4.2700,83,26,80,0.5628,0
 28, 1, 122, S3-12.jpg, 2, [240 239 10], yellow, 0, 329, 2, 1, 3.8591, 3, 0.3227, 3.8613,86,28,87,0.5894,0
 28, 1, 123, S4-20.jpg, 1, [240 37 33], red, NaN, 321, 1, 1, 3.7658, 3, 0.2419, 3.7682,109,32,77,0.5628,0
 28, 1, 124, S3-12.jpg, 2, [240 239 10], yellow, 0, 339, 1, 0, 3.9787, 3, 0.1215, 3.9810,110,28,78,0.5894,0
 28, 1, 125, S3-12.jpg, 2, [240 37 33], red, NaN, 369, 2, 1, 4.3315, 3, 0.0244, 4.3337,104,25,77,0.5894,0
 28, 1, 126, S3-12.jpg, 2, [240 37 33], red, NaN, 376, 1, 0, 4.4133, 2, 0.0412, 4.4156,85,56,82,0.5894,0
 28, 1, 127, S4-20.jpg, 1, [240 37 33], red, NaN, 367, 2, 0, 4.3054, 2, 0.2943, 4.3077,87,43,75,0.5628,0
 28, 1, 128, S3-12.jpg, 2, [10 144 240], blue, 1, 426, 1, 0, 5.0083, 3, 0.0958, 5.0106,77,44,92,0.5894,0
 28, 1, 129, S4-20.jpg, 1, [240 239 10], yellow, 1, 480, 2, 0, 5.6408, 3, 0.2468, 5.6429,80,82,82,0.5628,0
 28, 1, 130, S4-20.jpg, 1, [240 239 10], yellow, 1, 382, 2, 0, 4.4903, 3, 0.6653, 4.4926,86,24,96,0.5628,0
 28, 1, 131, S4-20.jpg, 1, [240 239 10], yellow, 1, 459, 1, 1, 5.3888, 3, 1.1158, 5.3909,124,37,79,0.5628,0
 28, 1, 132, S4-20.jpg, 1, [240 239 10], yellow, 1, 308, 2, 0, 3.6313, 3, 0.2062, 3.6336,90,63,76,0.5628,0
 28, 1, 133, S4-20.jpg, 1, [240 37 33], red, NaN, 391, 1, 1, 4.5899, 3, 0.1232, 4.5922,128,25,84,0.5628,0
 28, 1, 134, S3-12.jpg, 2, [10 144 240], blue, 1, 391, 2, 1, 4.5867, 3, 0.0586, 4.5888,79,46,78,0.5894,0
 28, 1, 135, S4-20.jpg, 1, [10 144 240], blue, 0, 481, 1, 1, 5.6495, 2, 0.0014, 5.6518,76,29,94,0.5628,0
 28, 1, 136, S3-12.jpg, 2, [240 37 33], red, NaN, 484, 2, 1, 5.6841, 3, 0.9785, 5.6862,75,63,119,0.5894,0
 28, 1, 137, S3-12.jpg, 2, [10 144 240], blue, 1, 496, 2, 1, 5.8254, 2, 0.5495, 5.8277,80,53,99,0.5894,0
 28, 1, 138, S3-12.jpg, 2, [10 144 240], blue, 1, NaN, 2, 1, 6.6191, 3, 0.4714, 6.3548,89,61,88,0.5894,0
 28, 1, 139, S3-12.jpg, 2, [10 144 240], blue, 1, 499, 2, 1, 5.8641, 2, 0.6007, 5.8660,121,30,88,0.5894,0
 28, 1, 140, S4-20.jpg, 1, [240 37 33], red, NaN, 461, 1, 1, 5.4177, 3, 0.1430, 5.4201,131,33,89,0.5628,0
 28, 1, 141, S3-12.jpg, 2, [10 144 240], blue, 1, 532, 2, 1, 6.2654, 2, 0.3859, 6.2673,83,59,140,0.5894,0
 28, 1, 142, S4-20.jpg, 1, [240 239 10], yellow, 1, 330, 2, 0, 3.8906, 3, 0.8197, 3.8931,88,29,103,0.5628,0
 28, 1, 143, S4-20.jpg, 1, [240 37 33], red, NaN, NaN, 1, 1, 6.7017, 3, 0.6882, 6.3532,76,28,83,0.5628,0
 28, 1, 144, S4-20.jpg, 1, [240 239 10], yellow, 1, NaN, 2, 0, 6.5087, 2, 0.5428, 6.3531,75,25,136,0.5628,0
 28, 1, 145, S3-12.jpg, 2, [240 239 10], yellow, 0, 507, 1, 0, 5.9563, 3, 0.1778, 5.9586,81,44,105,0.5894,0
 28, 1, 146, S4-20.jpg, 1, [10 144 240], blue, 0, 475, 1, 1, 5.5830, 3, 0.5642, 5.5853,94,50,76,0.5628,0
 28, 1, 147, S3-12.jpg, 2, [10 144 240], blue, 1, 499, 2, 1, 5.8659, 3, 0.6274, 5.8682,75,41,115,0.5894,0
 28, 1, 148, S3-12.jpg, 2, [10 144 240], blue, 1, NaN, 2, 1, 6.7169, 3, 0.5106, 6.3552,77,39,76,0.5894,0
 28, 1, 149, S3-12.jpg, 2, [10 144 240], blue, 1, 476, 2, 1, 5.5874, 3, 0.0660, 5.5894,106,26,109,0.5894,0
 28, 1, 150, S3-12.jpg, 2, [10 144 240], blue, 1, 481, 2, 1, 5.6574, 3, 0.0956, 5.6596,80,80,86,0.5894,0
 28, 1, 151, S4-20.jpg, 1, [10 144 240], blue, 0, NaN, 2, 0, 6.7095, 3, 0.7332, 6.3503,82,26,97,0.5628,0
 28, 1, 152, S4-20.jpg, 1, [240 239 10], yellow, 1, 474, 2, 0, 5.5873, 2, 0.0659, 5.5896,117,25,77,0.5628,0
 28, 1, 153, S4-20.jpg, 1, [10 144 240], blue, 0, 412, 1, 1, 4.8443, 3, 0.2498, 4.8466,84,24,85,0.5628,0
 28, 1, 154, S4-20.jpg, 1, [240 239 10], yellow, 1, 540, 2, 0, 6.3455, 3, 0.1204, 6.3479,96,28,88,0.5628,0
 28, 1, 155, S3-12.jpg, 2, [240 239 10], yellow, 0, NaN, 2, 1, 6.6199, 2, 0.6159, 6.3694,92,84,86,0.5894,0
 28, 1, 156, S4-20.jpg, 1, [240 239 10], yellow, 1, NaN, 1, 1, 6.5077, 2, 0.5904, 6.3465,87,45,83,0.5628,0
 28, 1, 157, S3-12.jpg, 2, [240 37 33], red, NaN, NaN, 1, 0, 6.6385, 3, 0.1770, 6.3723,140,35,97,0.5894,1
 28, 1, 158, S4-20.jpg, 1, [240 37 33], red, NaN, 501, 1, 1, 5.8872, 3, 0.1453, 5.8896,76,33,100,0.5628,0
 28, 1, 159, S4-20.jpg, 1, [240 239 10], yellow, 1, NaN, 2, 0, 6.6772, 3, 0.4796, 6.3441,98,49,101,0.5628,0
 28, 1, 160, S4-20.jpg, 1, [240 239 10], yellow, 1, 514, 1, 1, 6.0573, 2, 0.3851, 6.0592,97,50,87,0.5628,1
 28, 1, 161, S3-12.jpg, 2, [10 144 240], blue, 1, NaN, 2, 1, 6.9968, 3, 0.6415, 6.3524,93,66,99,0.5894,0
 28, 1, 162, S3-12.jpg, 2, [240 37 33], red, NaN, 486, 1, 0, 5.7049, 3, 0.0013, 5.7071,79,70,90,0.5894,0
 28, 1, 163, S3-12.jpg, 2, [240 239 10], yellow, 0, 502, 1, 0, 5.9023, 3, 0.6728, 5.9046,101,75,91,0.5894,0
 28, 1, 164, S3-12.jpg, 2, [10 144 240], blue, 1, 532, 2, 1, 6.2511, 2, 1.5883, 6.2534,102,53,84,0.5894,0
 28, 1, 165, S3-12.jpg, 2, [240 37 33], red, NaN, 522, 1, 0, 6.1333, 3, 0.3701, 6.1354,91,27,104,0.5894,0
 28, 1, 166, S4-20.jpg, 1, [240 239 10], yellow, 1, NaN, 1, 1, 6.8128, 3, 0.9135, 6.3455,76,28,84,0.5628,0
 28, 1, 167, S4-20.jpg, 1, [10 144 240], blue, 0, 383, 2, 0, 4.5058, 3, 1.0864, 4.5080,81,27,93,0.5628,1
 28, 1, 168, S4-20.jpg, 1, [240 239 10], yellow, 1, 480, 2, 0, 5.6361, 3, 0.2593, 5.6382,88,28,78,0.5628,0
 28, 1, 169, S3-12.jpg, 2, [10 144 240], blue, 1, 517, 2, 1, 6.0865, 3, 0.1425, 6.0886,99,23,85,0.5894,0
 28, 1, 170, S4-20.jpg, 1, [10 144 240], blue, 0, 532, 2, 0, 6.2529, 2, 0.0313, 6.2550,143,59,137,0.5628,0
 28, 1, 171, S3-12.jpg, 2, [240 37 33], red, NaN, 526, 1, 0, 6.1887, 3, 0.2267, 6.1910,89,61,101,0.5894,0
 28, 1, 172, S4-20.jpg, 1, [240 37 33], red, NaN, NaN, 2, 0, 6.6133, 3, 0.7595, 6.3455,106,31,76,0.5628,0
 28, 1, 173, S4-20.jpg, 1, [240 37 33], red, NaN, NaN, 2, 0, 6.4290, 2, 0.2726, 6.3516,82,68,105,0.5628,0
 28, 1, 174, S4-20.jpg, 1, [240 239 10], yellow, 1, NaN, 2, 0, 6.6785, 2, 0.4468, 6.3484,139,35,82,0.5628,0
 28, 1, 175, S3-12.jpg, 2, [10 144 240], blue, 1, 472, 1, 0, 5.5472, 3, 0.2589, 5.5496,92,28,104,0.5894,0
 28, 1, 176, S4-20.jpg, 1, [10 144 240], blue, 0, NaN, 1, 1, 6.5424, 3, 0.1187, 6.3464,88,27,138,0.5628,0
 28, 1, 177, S4-20.jpg, 1, [240 37 33], red, NaN, NaN, 1, 1, 6.4939, 2, 0.2941, 6.3496,89,58,80,0.5628,0
 28, 1, 178, S4-20.jpg, 1, [240 37 33], red, NaN, NaN, 2, 0, 6.7732, 3, 0.4843, 6.3737,113,87,89,0.5628,0
 28, 1, 179, S3-12.jpg, 2, [10 144 240], blue, 1, 494, 2, 1, 5.8020, 3, 0.3469, 5.8043,77,52,89,0.5894,0
 28, 1, 180, S3-12.jpg, 2, [10 144 240], blue, 1, 329, 2, 1, 4.2485, 4, 0.0787, 4.2508,76,46,111,0.5894,0
 28, 1, 181, S3-12.jpg, 2, [240 239 10], yellow, 0, 375, 2, 1, 4.4077, 3, 0.1129, 4.4100,98,54,107,0.5894,0
 28, 1, 182, S4-20.jpg, 1, [240 239 10], yellow, 1, 412, 2, 0, 4.8454, 3, 0.0089, 4.8477,93,89,86,0.5628,0
 28, 1, 183, S3-12.jpg, 2, [10 144 240], blue, 1, 495, 2, 1, 5.8191, 3, 0.0163, 5.8212,107,143,87,0.5894,0
 28, 1, 184, S4-20.jpg, 1, [240 239 10], yellow, 1, 528, 1, 1, 6.2010, 2, 0.2716, 6.2032,76,32,83,0.5628,0
 28, 1, 185, S3-12.jpg, 2, [240 37 33], red, NaN, NaN, 1, 0, 6.7675, 3, 0.5092, 6.3467,83,36,98,0.5894,0
 28, 1, 186, S4-20.jpg, 1, [240 239 10], yellow, 1, 440, 1, 1, 5.1655, 3, 0.0014, 5.1676,76,29,86,0.5628,0
 28, 1, 187, S3-12.jpg, 2, [240 37 33], red, NaN, 516, 1, 0, 6.0616, 2, 0.0013, 6.0638,80,37,143,0.5894,0
 28, 1, 188, S4-20.jpg, 1, [240 37 33], red, NaN, 438, 2, 0, 5.1577, 2, 0.0013, 5.1598,103,50,79,0.5628,0
 28, 1, 189, S3-12.jpg, 2, [10 144 240], blue, 1, 455, 1, 0, 5.3491, 3, 0.0138, 5.3514,79,44,92,0.5894,0
 28, 1, 190, S4-20.jpg, 1, [240 239 10], yellow, 1, NaN, 1, 1, 6.4466, 2, 0.0239, 6.3467,109,36,110,0.5628,0
 28, 1, 191, S3-12.jpg, 2, [10 144 240], blue, 1, NaN, 1, 0, 6.4193, 3, 0.1956, 6.3499,125,32,87,0.5894,0
 28, 1, 192, S3-12.jpg, 2, [240 239 10], yellow, 0, 469, 2, 1, 5.5169, 3, 0.0014, 5.5191,82,51,82,0.5894,0
 28, 1, 193, S3-12.jpg, 2, [240 239 10], yellow, 0, 483, 1, 0, 5.6909, 3, 0.6417, 5.6933,88,51,94,0.5894,0
 28, 1, 194, S4-20.jpg, 1, [240 239 10], yellow, 1, 499, 1, 1, 5.8682, 3, 0.2915, 5.8703,77,25,93,0.5628,0
 28, 1, 195, S4-20.jpg, 1, [240 37 33], red, NaN, 458, 2, 0, 5.3838, 3, 0.5264, 5.3861,132,56,118,0.5628,0
 28, 1, 196, S3-12.jpg, 2, [240 239 10], yellow, 0, NaN, 2, 1, 6.4844, 3, 0.2497, 6.3522,98,34,83,0.5894,0
 28, 1, 197, S4-20.jpg, 1, [240 239 10], yellow, 1, NaN, 2, 0, 6.6834, 2, 0.8526, 6.3559,85,35,102,0.5628,0
 28, 1, 198, S4-20.jpg, 1, [240 239 10], yellow, 1, NaN, 1, 1, 6.3722, 3, 0.0013, 6.3423,93,32,128,0.5628,0
 28, 1, 199, S4-20.jpg, 1, [240 239 10], yellow, 1, NaN, 1, 1, 6.6700, 2, 0.2305, 6.3471,119,24,76,0.5628,0
 28, 1, 200, S3-12.jpg, 2, [10 144 240], blue, 1, 485, 2, 1, 5.7040, 3, 0.0461, 5.7063,85,30,75,0.5894,0
 28, 1, 201, S3-12.jpg, 2, [240 37 33], red, NaN, 517, 2, 1, 6.0880, 3, 0.0411, 6.0903,85,55,88,0.5894,0
 28, 1, 202, S3-12.jpg, 2, [10 144 240], blue, 1, NaN, 1, 0, 6.9397, 2, 0.4793, 6.3445,78,24,103,0.5894,0
 28, 1, 203, S4-20.jpg, 1, [240 239 10], yellow, 1, 509, 2, 0, 5.9849, 3, 0.6387, 5.9871,97,36,88,0.5628,0
 28, 1, 204, S3-12.jpg, 2, [10 144 240], blue, 1, NaN, 1, 0, 6.4793, 3, 0.2826, 6.3489,90,33,83,0.5894,0
 28, 1, 205, S4-20.jpg, 1, [240 239 10], yellow, 1, 491, 2, 0, 5.7724, 3, 0.7319, 5.7746,110,30,84,0.5628,1
 28, 1, 206, S3-12.jpg, 2, [10 144 240], blue, 1, 540, 2, 1, 6.3420, 3, 0.0959, 6.3442,91,47,133,0.5894,0
 28, 1, 207, S3-12.jpg, 2, [10 144 240], blue, 1, 484, 2, 1, 5.6884, 3, 0.2246, 5.6906,111,49,86,0.5894,0
 28, 1, 208, S3-12.jpg, 2, [10 144 240], blue, 1, NaN, 2, 1, 7.0113, 2, 1.2288, 6.3496,79,52,129,0.5894,0
 28, 1, 209, S4-20.jpg, 1, [240 239 10], yellow, 1, 509, 1, 1, 5.9908, 3, 0.4192, 5.9930,82,37,139,0.5628,0
 28, 1, 210, S4-20.jpg, 1, [240 37 33], red, NaN, 533, 1, 1, 6.2703, 3, 0.2132, 6.2724,80,26,90,0.5628,0
 28, 1, 211, S3-12.jpg, 2, [10 144 240], blue, 1, 434, 2, 1, 5.0987, 3, 0.4009, 5.1007,78,31,122,0.5894,1
 28, 1, 212, S3-12.jpg, 2, [10 144 240], blue, 1, NaN, 1, 0, 6.9650, 3, 0.6952, 6.3470,129,71,75,0.5894,0
 28, 1, 213, S3-12.jpg, 2, [10 144 240], blue, 1, 489, 2, 1, 5.7567, 2, 0.1308, 5.7590,94,51,105,0.5894,0
 28, 1, 214, S4-20.jpg, 1, [240 239 10], yellow, 1, 496, 2, 0, 5.8267, 3, 0.0411, 5.8290,116,41,90,0.5628,0
 28, 1, 215, S3-12.jpg, 2, [10 144 240], blue, 1, NaN, 1, 0, 6.7013, 2, 0.6081, 6.3558,76,38,77,0.5894,0
 28, 1, 216, S3-12.jpg, 2, [10 144 240], blue, 1, 502, 2, 1, 5.9040, 2, 1.2016, 5.9061,90,36,141,0.5894,0
 28, 1, 217, S3-12.jpg, 2, [240 37 33], red, NaN, 489, 1, 0, 5.7449, 3, 0.0013, 5.7468,133,38,82,0.5894,0
 28, 1, 218, S4-20.jpg, 1, [240 239 10], yellow, 1, 427, 1, 1, 5.0174, 3, 0.1454, 5.0194,92,76,98,0.5628,0
 28, 1, 219, S4-20.jpg, 1, [240 37 33], red, NaN, 468, 2, 0, 5.4969, 3, 0.0645, 5.4992,115,47,79,0.5628,0
 28, 1, 220, S3-12.jpg, 2, [10 144 240], blue, 1, NaN, 1, 0, 6.6534, 3, 0.1706, 6.3438,80,42,79,0.5894,0
 28, 1, 221, S3-12.jpg, 2, [10 144 240], blue, 1, 333, 2, 1, 3.9047, 3, 0.4548, 3.9070,78,67,81,0.5894,1
 28, 1, 222, S3-12.jpg, 2, [10 144 240], blue, 1, 498, 1, 0, 5.8455, 2, 0.1284, 5.8478,130,27,106,0.5894,0
 28, 1, 223, S3-12.jpg, 2, [10 144 240], blue, 1, NaN, 2, 1, 6.5743, 3, 0.1971, 6.3489,83,52,131,0.5894,0
 28, 1, 224, S4-20.jpg, 1, [240 239 10], yellow, 1, 533, 1, 1, 6.2683, 3, 0.0684, 6.2705,102,34,91,0.5628,0
 28, 1, 225, S4-20.jpg, 1, [240 239 10], yellow, 1, NaN, 1, 1, 6.6998, 3, 0.4183, 6.3534,76,27,82,0.5628,0
 28, 1, 226, S3-12.jpg, 2, [240 239 10], yellow, 0, 518, 2, 1, 6.0920, 3, 0.0960, 6.0940,103,39,95,0.5894,0
 28, 1, 227, S4-20.jpg, 1, [10 144 240], blue, 0, 484, 2, 0, 5.6847, 2, 0.0610, 5.6867,91,45,116,0.5628,0
 28, 1, 228, S3-12.jpg, 2, [10 144 240], blue, 1, 426, 1, 0, 5.0060, 3, 0.1772, 5.0083,108,24,78,0.5894,1
 28, 1, 229, S4-20.jpg, 1, [240 37 33], red, NaN, 474, 1, 1, 5.5695, 3, 0.3565, 5.5718,95,33,78,0.5628,0
 28, 1, 230, S3-12.jpg, 2, [10 144 240], blue, 1, 522, 1, 0, 6.1393, 2, 0.2902, 6.1417,135,29,75,0.5894,0
 28, 1, 231, S4-20.jpg, 1, [240 239 10], yellow, 1, 461, 2, 0, 5.4190, 3, 0.1230, 5.4213,100,44,100,0.5628,1
 28, 1, 232, S4-20.jpg, 1, [10 144 240], blue, 0, 375, 1, 1, 4.4235, 4, 0.1337, 4.4258,88,32,78,0.5628,0
 28, 1, 233, S4-20.jpg, 1, [240 239 10], yellow, 1, 474, 1, 1, 5.5912, 3, 0.2102, 5.5935,83,33,120,0.5628,0
 28, 1, 234, S4-20.jpg, 1, [240 239 10], yellow, 1, 420, 2, 0, 4.9359, 3, 0.3093, 4.9381,87,43,90,0.5628,0
 28, 1, 235, S4-20.jpg, 1, [10 144 240], blue, 0, 529, 1, 1, 6.2133, 2, 0.2197, 6.2154,94,40,107,0.5628,0
 28, 1, 236, S4-20.jpg, 1, [240 37 33], red, NaN, NaN, 2, 0, 6.6839, 3, 0.3419, 6.3549,110,27,79,0.5628,0
 28, 1, 237, S4-20.jpg, 1, [240 239 10], yellow, 1, 322, 2, 0, 3.7828, 3, 0.4601, 3.7851,141,79,85,0.5628,0
 28, 1, 238, S3-12.jpg, 2, [240 37 33], red, NaN, 488, 1, 0, 5.7354, 3, 0.1218, 5.7376,92,69,109,0.5894,0
 28, 1, 239, S4-20.jpg, 1, [240 239 10], yellow, 1, 540, 1, 1, 6.3441, 3, 0.0717, 6.3462,101,28,83,0.5628,0
 28, 1, 240, S4-20.jpg, 1, [240 239 10], yellow, 1, 429, 1, 1, 5.0439, 3, 0.1878, 5.0459,81,41,93,0.5628,0
 28, 1, 241, S3-12.jpg, 2, [10 144 240], blue, 1, NaN, 2, 1, 6.6444, 3, 0.1778, 6.3475,78,57,81,0.5894,0
 28, 1, 242, S3-12.jpg, 2, [10 144 240], blue, 1, 403, 2, 1, 4.7332, 3, 0.3460, 4.7353,78,28,84,0.5894,0
 28, 1, 243, S3-12.jpg, 2, [240 37 33], red, NaN, 354, 2, 1, 4.1632, 3, 0.0917, 4.1652,84,35,80,0.5894,0
 28, 1, 244, S4-20.jpg, 1, [240 239 10], yellow, 1, 449, 1, 1, 5.2781, 2, 0.0559, 5.2803,105,37,87,0.5628,1
 28, 1, 245, S3-12.jpg, 2, [10 144 240], blue, 1, 485, 1, 0, 5.7045, 3, 0.2336, 5.7066,114,33,92,0.5894,0
 28, 1, 246, S4-20.jpg, 1, [240 239 10], yellow, 1, 417, 1, 1, 4.9035, 3, 0.1103, 4.9057,83,49,106,0.5628,0
 28, 1, 247, S4-20.jpg, 1, [240 239 10], yellow, 1, 411, 1, 1, 4.8380, 3, 0.0140, 4.8403,93,23,95,0.5628,0
 28, 1, 248, S3-12.jpg, 2, [10 144 240], blue, 1, 521, 1, 0, 6.1238, 3, 0.4150, 6.1258,112,30,98,0.5894,0
 28, 1, 249, S3-12.jpg, 2, [10 144 240], blue, 1, 479, 1, 0, 5.6291, 2, 0.0188, 5.6314,102,35,79,0.5894,0
 28, 1, 250, S4-20.jpg, 1, [240 239 10], yellow, 1, 357, 2, 0, 4.2003, 3, 0.0212, 4.2026,120,36,86,0.5628,1
 28, 1, 251, S4-20.jpg, 1, [240 239 10], yellow, 1, 394, 1, 1, 4.6317, 3, 0.0188, 4.6340,84,42,82,0.5628,0
 28, 1, 252, S4-20.jpg, 1, [240 239 10], yellow, 1, 447, 1, 1, 5.2572, 3, 0.0659, 5.2595,82,44,76,0.5628,0
 28, 1, 253, S4-20.jpg, 1, [240 37 33], red, NaN, 477, 2, 0, 5.6088, 2, 0.1129, 5.6109,77,48,101,0.5628,0
 28, 1, 254, S3-12.jpg, 2, [10 144 240], blue, 1, 380, 2, 1, 4.4836, 3, 0.0015, 4.4859,96,57,80,0.5894,0
 28, 1, 255, S3-12.jpg, 2, [10 144 240], blue, 1, 532, 2, 1, 6.2509, 2, 0.0238, 6.2531,81,25,110,0.5894,0
 28, 1, 256, S3-12.jpg, 2, [240 239 10], yellow, 0, 415, 1, 0, 4.8761, 3, 0.1881, 4.8784,99,48,195,0.5894,0
 28, 1, 257, S3-12.jpg, 2, [240 239 10], yellow, 0, 409, 2, 1, 4.8067, 3, 0.0814, 4.8088,92,31,98,0.5894,0
 28, 1, 258, S3-12.jpg, 2, [10 144 240], blue, 1, 502, 2, 1, 5.9026, 3, 0.1083, 5.9050,87,43,102,0.5894,1
 28, 1, 259, S4-20.jpg, 1, [240 239 10], yellow, 1, 383, 2, 0, 4.4996, 4, 0.0759, 4.5016,90,27,117,0.5628,0
 28, 1, 260, S3-12.jpg, 2, [10 144 240], blue, 1, 480, 2, 1, 5.6471, 2, 0.0013, 5.6494,86,29,85,0.5894,0
 28, 1, 261, S4-20.jpg, 1, [10 144 240], blue, 0, 383, 2, 0, 4.5032, 3, 0.0436, 4.5052,104,90,108,0.5628,0
 28, 1, 262, S4-20.jpg, 1, [240 239 10], yellow, 1, 518, 2, 0, 6.0912, 3, 0.1752, 6.0935,126,37,92,0.5628,0
 28, 1, 263, S3-12.jpg, 2, [10 144 240], blue, 1, 528, 1, 0, 6.2032, 3, 0.2115, 6.2055,118,38,76,0.5894,0
 28, 1, 264, S4-20.jpg, 1, [240 239 10], yellow, 1, 517, 1, 1, 6.0737, 3, 0.0931, 6.0759,86,29,132,0.5628,0
 28, 1, 265, S4-20.jpg, 1, [240 239 10], yellow, 1, NaN, 1, 1, 6.4598, 2, 0.1700, 6.3488,111,40,96,0.5628,0
 28, 1, 266, S3-12.jpg, 2, [240 37 33], red, NaN, 251, 2, 1, 2.9432, 3, 0.0014, 2.9453,83,48,76,0.5894,0
 28, 1, 267, S3-12.jpg, 2, [240 37 33], red, NaN, 478, 1, 0, 5.6195, 3, 0.0634, 5.6216,97,33,77,0.5894,0
 28, 1, 268, S4-20.jpg, 1, [240 239 10], yellow, 1, 272, 2, 0, 3.1882, 4, 0.0418, 3.1905,86,51,89,0.5628,0
 28, 1, 269, S3-12.jpg, 2, [10 144 240], blue, 1, 394, 2, 1, 4.6358, 3, 0.0014, 4.6378,77,46,77,0.5894,0
 28, 1, 270, S3-12.jpg, 2, [10 144 240], blue, 1, 444, 2, 1, 5.2192, 3, 0.3065, 5.2212,109,54,127,0.5894,1
 28, 1, 271, S3-12.jpg, 2, [10 144 240], blue, 1, 520, 1, 0, 6.1120, 3, 0.0735, 6.1140,96,38,110,0.5894,0
 28, 1, 272, S4-20.jpg, 1, [240 239 10], yellow, 1, NaN, 1, 1, 6.6849, 3, 0.3014, 6.3458,91,30,126,0.5628,0
 28, 1, 273, S3-12.jpg, 2, [10 144 240], blue, 1, 393, 1, 0, 4.6227, 2, 0.0734, 4.6248,100,56,77,0.5894,0
 28, 1, 274, S4-20.jpg, 1, [240 37 33], red, NaN, 380, 1, 1, 4.4631, 3, 0.1307, 4.4654,77,34,97,0.5628,1
 28, 1, 275, S4-20.jpg, 1, [240 239 10], yellow, 1, 333, 2, 0, 3.9126, 3, 0.1034, 3.9147,80,48,77,0.5628,0
 28, 1, 276, S4-20.jpg, 1, [240 37 33], red, NaN, 524, 2, 0, 6.1600, 2, 0.3105, 6.1620,78,34,92,0.5628,0