subID,block,trial,targetImg,targetIdx,cue_rgb,cue_string,congruent,respFrame,response,accuracy,RT,confResp,confRT,flickerDuration,noise1frames,signal1frames,noise2frames,coherence,catch_trial
23,1,1, S4-20.jpg,2, [10 240 94], green,1,177,1,0,3.2162,3,1.9899,3.2203,102,65,80,0.5522,0
23,1,2, S3-12.jpg,1, [181 10 240], purple,1,257,1,1,4.602,2,0.5024,4.6028,88,47,97,0.5766,0
23,1,3, S3-12.jpg,1, [181 10 240], purple,1,206,1,1,3.6959,3,0.327,3.6974,101,56,86,0.5766,0
23,1,4, S4-20.jpg,2, [10 240 94], green,1,310,2,1,5.5852,2,1.2041,5.586,96,45,104,0.5522,0
23,1,5, S4-20.jpg,2, [10 240 94], green,1,160,2,1,2.8943,2,0.6069,2.8951,99,26,82,0.5522,0
23,1,6, S4-20.jpg,2, [10 240 94], green,1,426,1,0,7.609,2,0.5757,7.6099,81,59,79,0.5522,0
23,1,7, S3-12.jpg,1, [181 10 240], purple,1,249,1,1,4.4732,3,0.431,4.4742,93,43,138,0.5766,0
23,1,8, S3-12.jpg,1, [181 10 240], purple,1,81,1,1,1.4538,3,0.2434,1.4545,131,31,82,0.5766,1
23,1,9, S3-12.jpg,1, [181 10 240], purple,1,351,1,1,6.2852,3,0.415,6.2861,116,29,90,0.5766,0
23,1,10, S3-12.jpg,1, [240 168 10], orange, NaN,365,2,0,6.5997,2,0.2866,6.6004,80,43,80,0.5766,0
23,1,11, S4-20.jpg,2, [240 168 10], orange, NaN,434,1,0,7.76,2,1.2305,7.761,76,60,81,0.5522,0
23,1,12, S3-12.jpg,1, [181 10 240], purple,1,485,1,1,8.7224,2,0.3047,8.7233,94,37,135,0.5766,0
23,1,13, S3-12.jpg,1, [181 10 240], purple,1,337,1,1,6.0431,2,0.7071,6.044,100,29,86,0.5766,0
23,1,14, S4-20.jpg,2, [10 240 94], green,1,534,1,0,9.5416,2,0.5949,9.5427,93,36,86,0.5522,0
23,1,15, S3-12.jpg,1, [10 240 94], green,0, NaN,1,1,9.8622,2,0.3945,9.6619,98,47,112,0.5766,0
23,1,16, S4-20.jpg,2, [10 240 94], green,1,266,2,1,4.7598,1,0.1887,4.7607,89,29,80,0.5522,0
23,1,17, S4-20.jpg,2, [240 168 10], orange, NaN,427,2,1,7.6501,2,0.3561,7.651,92,37,89,0.5522,0
23,1,18, S4-20.jpg,2, [181 10 240], purple,0,308,1,0,5.5497,1,0.3601,5.5507,80,23,76,0.5522,1
23,1,19, S3-12.jpg,1, [181 10 240], purple,1,64,1,1,1.2125,3,0.0071,1.2134,78,61,84,0.5766,0
23,1,20, S4-20.jpg,2, [10 240 94], green,1,430,1,0,7.6959,1,0.4369,7.6968,93,38,92,0.5522,0
23,1,21, S4-20.jpg,2, [10 240 94], green,1,459,2,1,8.2238,2,0.1965,8.2246,94,75,100,0.5522,0
23,1,22, S4-20.jpg,2, [10 240 94], green,1,518,2,1,9.2406,2,0.628,9.2414,83,51,91,0.5522,0
23,1,23, S3-12.jpg,1, [181 10 240], purple,1,235,1,1,4.2361,2,0.1063,4.2369,87,67,108,0.5766,0
23,1,24, S3-12.jpg,1, [240 168 10], orange, NaN,384,1,1,6.9001,3,0.2173,6.9008,95,30,81,0.5766,0
23,1,25, S4-20.jpg,2, [10 240 94], green,1,539,2,1,9.6314,3,0.2478,9.6321,85,30,102,0.5522,0
23,1,26, S4-20.jpg,2, [181 10 240], purple,0,130,1,0,2.338,3,0.4395,2.3394,79,80,90,0.5522,0
23,1,27, S3-12.jpg,1, [181 10 240], purple,1,33,1,1,0.607,3,0.1728,0.6078,97,28,136,0.5766,0
23,1,28, S3-12.jpg,1, [10 240 94], green,0,490,2,0,8.8057,2,0.7105,8.8065,82,89,81,0.5766,0
23,1,29, S3-12.jpg,1, [181 10 240], purple,1,61,1,1,1.1187,3,0.1081,1.1194,117,27,84,0.5766,0
23,1,30, S3-12.jpg,1, [181 10 240], purple,1,28,1,1,0.4807,3,0.1628,0.4816,105,32,90,0.5766,0
23,1,31, S4-20.jpg,2, [240 168 10], orange, NaN,58,2,1,1.0434,2,0.2006,1.0444,113,31,113,0.5522,1
23,1,32, S4-20.jpg,2, [10 240 94], green,1,445,2,1,7.9943,1,0.6643,7.995,77,25,100,0.5522,0
23,1,33, S3-12.jpg,1, [181 10 240], purple,1,44,1,1,0.8155,3,0.1873,0.8162,107,26,104,0.5766,1
23,1,34, S4-20.jpg,2, [10 240 94], green,1,103,2,1,1.8748,4,0.2426,1.8756,79,31,84,0.5522,0
23,1,35, S3-12.jpg,1, [181 10 240], purple,1,46,1,1,0.8124,4,0.1119,0.8132,89,36,114,0.5766,0
23,1,36, S3-12.jpg,1, [181 10 240], purple,1,33,1,1,0.5762,4,0.2894,0.5769,114,25,90,0.5766,0
23,1,37, S3-12.jpg,1, [181 10 240], purple,1,30,1,1,0.5198,4,0.158,0.5206,76,25,96,0.5766,0
23,1,38, S4-20.jpg,2, [10 240 94], green,1,125,2,1,2.2372,2,0.7741,2.2382,81,36,83,0.5522,0
23,1,39, S4-20.jpg,2, [240 168 10], orange, NaN,74,2,1,1.3367,4,0.2216,1.3377,109,30,78,0.5522,0
23,1,40, S3-12.jpg,1, [181 10 240], purple,1,52,1,1,0.9264,4,0.1263,0.9272,98,47,98,0.5766,0
23,1,41, S4-20.jpg,2, [10 240 94], green,1,70,2,1,1.2623,4,0.166,1.2633,124,24,77,0.5522,0
23,1,42, S3-12.jpg,1, [181 10 240], purple,1,132,1,1,2.3897,4,0.016,2.3904,127,50,77,0.5766,0
23,1,43, S4-20.jpg,2, [240 168 10], orange, NaN,82,2,1,1.4906,4,0.1456,1.4914,119,45,88,0.5522,0
23,1,44, S3-12.jpg,1, [10 240 94], green,0,66,2,0,1.2128,4,0.3399,1.2135,81,35,92,0.5766,0
23,1,45, S4-20.jpg,2, [10 240 94], green,1,29,2,1,0.5266,1,0.1838,0.5273,95,34,97,0.5522,0
23,1,46, S4-20.jpg,2, [181 10 240], purple,0,41,1,0,0.7906,1,0.0941,0.7915,82,29,82,0.5522,0
23,1,47, S4-20.jpg,2, [240 168 10], orange, NaN,59,2,1,1.0623,3,0.1271,1.0632,101,143,83,0.5522,1
23,1,48, S4-20.jpg,2, [240 168 10], orange, NaN,54,2,1,0.9633,3,0.1214,0.9643,87,40,79,0.5522,0
23,1,49, S3-12.jpg,1, [181 10 240], purple,1,42,1,1,0.757,3,0.2455,0.7578,107,60,95,0.5766,0
23,1,50, S3-12.jpg,1, [181 10 240], purple,1,74,1,1,1.3668,3,0.2437,1.3676,97,36,78,0.5766,0
23,1,51, S3-12.jpg,1, [181 10 240], purple,1,32,1,1,0.5548,2,0.1702,0.5557,102,38,81,0.5766,0
23,1,52, S3-12.jpg,1, [181 10 240], purple,1,45,1,1,0.7686,2,0.6837,0.7693,77,32,81,0.5766,0
23,1,53, S3-12.jpg,1, [181 10 240], purple,1,25,1,1,0.4333,3,0.2532,0.4345,120,37,95,0.5766,0
23,1,54, S3-12.jpg,1, [181 10 240], purple,1,26,1,1,0.4612,3,0.2086,0.4621,80,66,102,0.5766,1
23,1,55, S4-20.jpg,2, [10 240 94], green,1,90,2,1,1.5799,2,0.0879,1.5807,112,46,118,0.5522,0
23,1,56, S3-12.jpg,1, [10 240 94], green,0,36,2,0,0.613,2,0.0559,0.6138,110,24,87,0.5766,0
23,1,57, S3-12.jpg,1, [10 240 94], green,0,32,2,0,0.5947,2,0.0933,0.5957,106,67,115,0.5766,0
23,1,58, S4-20.jpg,2, [181 10 240], purple,0,55,1,0,1.0228,3,0.0866,1.0236,85,54,109,0.5522,1
23,1,59, S3-12.jpg,1, [181 10 240], purple,1,36,1,1,0.6691,3,0.1599,0.6699,82,41,143,0.5766,0
23,1,60, S3-12.jpg,1, [240 168 10], orange, NaN,50,2,0,0.9212,2,0.0677,0.9221,92,32,79,0.5766,0
23,1,61, S4-20.jpg,2, [10 240 94], green,1,111,2,1,1.9729,2,0.1143,1.9739,92,36,101,0.5522,0
23,1,62, S3-12.jpg,1, [181 10 240], purple,1,35,1,1,0.6607,2,0.2189,0.6614,109,37,95,0.5766,0
23,1,63, S4-20.jpg,2, [10 240 94], green,1,56,2,1,1.0016,2,0.0636,1.0024,81,53,107,0.5522,0
23,1,64, S4-20.jpg,2, [240 168 10], orange, NaN,23,2,1,0.4166,2,0.1002,0.4175,115,27,88,0.5522,0
23,1,65, S4-20.jpg,2, [10 240 94], green,1,38,2,1,0.725,2,0.1226,0.7259,86,24,134,0.5522,0
23,1,66, S3-12.jpg,1, [181 10 240], purple,1,30,1,1,0.5587,2,0.1172,0.5597,85,27,111,0.5766,0
23,1,67, S4-20.jpg,2, [10 240 94], green,1,45,2,1,0.7973,2,0.0714,0.7981,128,35,77,0.5522,0
23,1,68, S3-12.jpg,1, [181 10 240], purple,1,320,1,1,5.7163,2,0.0884,5.7172,90,48,81,0.5766,1
23,1,69, S4-20.jpg,2, [10 240 94], green,1,34,2,1,0.6272,2,0.0024,0.628,76,52,83,0.5522,0
23,1,70, S4-20.jpg,2, [10 240 94], green,1,32,2,1,0.5802,2,0.0002,0.5811,102,55,77,0.5522,0
23,1,71, S4-20.jpg,2, [10 240 94], green,1,24,2,1,0.4335,2,0.0004,0.4343,86,48,92,0.5522,1
23,1,72, S3-12.jpg,1, [10 240 94], green,0,27,2,0,0.4976,2,0.0042,0.4984,77,36,88,0.5766,0
23,1,73, S4-20.jpg,2, [10 240 94], green,1,26,2,1,0.4475,2,0.0445,0.4483,106,40,78,0.5522,0
23,1,74, S3-12.jpg,1, [181 10 240], purple,1,27,1,1,0.464,2,0.0002,0.4649,84,24,81,0.5766,0
23,1,75, S3-12.jpg,1, [181 10 240], purple,1,25,1,1,0.4274,2,0.0677,0.4283,118,34,110,0.5766,0
23,1,76, S4-20.jpg,2, [240 168 10], orange, NaN,32,2,1,0.5834,2,0.0227,0.5844,75,28,108,0.5522,0
23,1,77, S3-12.jpg,1, [181 10 240], purple,1,51,1,1,0.9107,2,0.0003,0.9116,195,53,85,0.5766,0
23,1,78, S3-12.jpg,1, [240 168 10], orange, NaN,50,2,0,0.9123,2,0.1767,0.9131,84,32,111,0.5766,0
23,1,79, S4-20.jpg,2, [10 240 94], green,1,80,2,1,1.4444,2,0.002,1.4452,88,24,78,0.5522,0
23,1,80, S4-20.jpg,2, [240 168 10], orange, NaN,65,2,1,1.2091,2,0.0004,1.2099,83,26,91,0.5522,0
23,1,81, S4-20.jpg,2, [10 240 94], green,1,78,2,1,1.4093,2,0.1576,1.41,111,57,78,0.5522,0
23,1,82, S4-20.jpg,2, [10 240 94], green,1,34,2,1,0.6402,2,0.0002,0.6412,78,28,99,0.5522,0
23,1,83, S3-12.jpg,1, [240 168 10], orange, NaN,50,2,0,0.9204,2,0.0004,0.9214,104,33,78,0.5766,0
23,1,84, S4-20.jpg,2, [181 10 240], purple,0,38,1,0,0.6769,2,0.0161,0.6776,80,31,103,0.5522,0
23,1,85, S3-12.jpg,1, [181 10 240], purple,1,29,1,1,0.524,2,0.0889,0.5248,87,25,78,0.5766,0
23,1,86, S4-20.jpg,2, [10 240 94], green,1,35,2,1,0.6763,2,0.0005,0.677,119,24,107,0.5522,0
23,1,87, S4-20.jpg,2, [10 240 94], green,1,26,2,1,0.4956,2,0.0708,0.4963,86,63,77,0.5522,0
23,1,88, S3-12.jpg,1, [240 168 10], orange, NaN,22,2,0,0.3773,2,0.0275,0.3783,96,31,84,0.5766,0
23,1,89, S4-20.jpg,2, [10 240 94], green,1,25,2,1,0.4291,2,0.0002,0.4306,105,27,94,0.5522,1
23,1,90, S4-20.jpg,2, [181 10 240], purple,0,33,1,0,0.6608,2,0.0002,0.6616,79,57,116,0.5522,0
23,1,91, S3-12.jpg,1, [181 10 240], purple,1,24,1,1,0.4114,2,0.6356,0.4121,85,27,76,0.5766,0
23,1,92, S4-20.jpg,2, [10 240 94], green,1,44,2,1,0.7792,2,0.1615,0.78,87,40,114,0.5522,0
23,1,93, S3-12.jpg,1, [10 240 94], green,0,35,2,0,0.6823,2,0.1671,0.6832,143,31,98,0.5766,0
23,1,94, S4-20.jpg,2, [240 168 10], orange, NaN,58,2,1,1.0783,2,0.1817,1.0792,77,41,102,0.5522,0
23,1,95, S3-12.jpg,1, [181 10 240], purple,1,71,1,1,1.2781,2,0.0194,1.2789,77,29,106,0.5766,0
23,1,96, S4-20.jpg,2, [240 168 10], orange, NaN,37,2,1,0.6969,2,0.0776,0.6976,133,26,119,0.5522,0
23,1,97, S4-20.jpg,2, [181 10 240], purple,0,47,1,0,0.8976,2,0.0545,0.8989,88,40,93,0.5522,0
23,1,98, S3-12.jpg,1, [181 10 240], purple,1,27,1,1,0.4679,2,0.1035,0.4689,112,34,86,0.5766,0
23,1,99, S4-20.jpg,2, [181 10 240], purple,0,27,1,0,0.4638,2,0.072,0.4645,80,42,82,0.5522,0
23,1,100, S3-12.jpg,1, [240 168 10], orange, NaN,57,2,0,0.9571,2,0.0003,0.9579,94,61,85,0.5766,0
23,1,101, S4-20.jpg,2, [181 10 240], purple,0,46,1,0,0.8373,2,0.0051,0.838,110,30,79,0.5522,0
23,1,102, S3-12.jpg,1, [181 10 240], purple,1,34,1,1,0.6465,2,0.0002,0.6473,77,91,76,0.5766,0
23,1,103, S4-20.jpg,2, [10 240 94], green,1,67,2,1,1.2108,2,0.0002,1.2118,84,81,132,0.5522,0
23,1,104, S4-20.jpg,2, [10 240 94], green,1,32,2,1,0.5661,2,0.0085,0.567,89,30,77,0.5522,0
23,1,105, S4-20.jpg,2, [10 240 94], green,1,28,2,1,0.4797,2,0.1396,0.4805,97,63,82,0.5522,0
23,1,106, S4-20.jpg,2, [240 168 10], orange, NaN,56,2,1,1.0247,2,0.1714,1.0255,140,33,78,0.5522,0
23,1,107, S3-12.jpg,1, [240 168 10], orange, NaN,30,2,0,0.5388,2,0.1911,0.5397,79,27,93,0.5766,0
23,1,108, S3-12.jpg,1, [181 10 240], purple,1,68,1,1,1.2146,2,0.0002,1.2153,78,70,80,0.5766,0
23,1,109, S3-12.jpg,1, [10 240 94], green,0,28,2,0,0.487,2,0.0061,0.4878,89,29,95,0.5766,0
23,1,110, S3-12.jpg,1, [10 240 94], green,0,26,2,0,0.447,2,0.0005,0.4484,78,33,104,0.5766,1
23,1,111, S4-20.jpg,2, [10 240 94], green,1,23,2,1,0.4029,2,0.0398,0.4038,79,38,78,0.5522,0
23,1,112, S3-12.jpg,1, [181 10 240], purple,1,35,1,1,0.6684,2,0.0058,0.6692,101,23,195,0.5766,0
23,1,113, S3-12.jpg,1, [240 168 10], orange, NaN,31,2,0,0.5487,2,0.0057,0.5497,139,25,80,0.5766,0
23,1,114, S3-12.jpg,1, [240 168 10], orange, NaN,25,2,0,0.4553,2,0.0002,0.4567,83,29,83,0.5766,0
23,1,115, S4-20.jpg,2, [10 240 94], green,1,134,2,1,2.4455,2,0.0002,2.4463,88,58,117,0.5522,0
23,1,116, S4-20.jpg,2, [240 168 10], orange, NaN,34,2,1,0.6609,2,0.0638,0.6616,91,26,89,0.5522,0
23,1,117, S4-20.jpg,2, [10 240 94], green,1,46,2,1,0.8273,2,0.1961,0.8281,95,143,92,0.5522,0
23,1,118, S3-12.jpg,1, [181 10 240], purple,1,37,1,1,0.6968,2,0.1269,0.6976,86,48,106,0.5766,0
23,1,119, S4-20.jpg,2, [240 168 10], orange, NaN,32,2,1,0.6021,2,0.0971,0.6028,103,47,89,0.5522,0
23,1,120, S3-12.jpg,1, [240 168 10], orange, NaN,50,2,0,0.9426,2,0.0634,0.9435,96,49,92,0.5766,0
23,1,121, S3-12.jpg,1, [181 10 240], purple,1,70,1,1,1.2585,2,0.4439,1.2592,79,23,131,0.5766,0
23,1,122, S4-20.jpg,2, [240 168 10], orange, NaN,30,2,1,0.5247,2,0.0431,0.5255,108,33,89,0.5522,0
23,1,123, S3-12.jpg,1, [181 10 240], purple,1,33,1,1,0.5883,2,0.1119,0.589,104,56,105,0.5766,0
23,1,124, S3-12.jpg,1, [181 10 240], purple,1,31,1,1,0.5994,2,0.0822,0.6002,87,51,77,0.5766,0
23,1,125, S3-12.jpg,1, [240 168 10], orange, NaN,33,2,0,0.6199,2,0.0772,0.6207,84,27,87,0.5766,1
23,1,126, S4-20.jpg,2, [240 168 10], orange, NaN,29,2,1,0.5223,2,0.0745,0.5233,91,32,79,0.5522,0
23,1,127, S3-12.jpg,1, [10 240 94], green,0,37,1,1,0.6507,2,0.0851,0.6515,77,48,97,0.5766,1
23,1,128, S3-12.jpg,1, [181 10 240], purple,1,29,1,1,0.5278,2,0.1886,0.5285,108,26,96,0.5766,0
23,1,129, S3-12.jpg,1, [181 10 240], purple,1,30,1,1,0.5499,2,0.1827,0.5506,76,62,87,0.5766,0
23,1,130, S4-20.jpg,2, [10 240 94], green,1,79,2,1,1.4343,2,0.1254,1.4351,85,28,84,0.5522,0
23,1,131, S3-12.jpg,1, [181 10 240], purple,1,33,1,1,0.6168,2,0.1111,0.6176,79,28,77,0.5766,0
23,1,132, S3-12.jpg,1, [181 10 240], purple,1,51,1,1,0.9277,2,0.2055,0.9285,93,84,87,0.5766,0
23,1,133, S3-12.jpg,1, [181 10 240], purple,1,78,1,1,1.4359,2,0.1643,1.4367,87,33,140,0.5766,0
23,1,134, S4-20.jpg,2, [10 240 94], green,1,43,2,1,0.8095,2,0.0841,0.8103,80,49,76,0.5522,0
23,1,135, S4-20.jpg,2, [10 240 94], green,1,26,2,1,0.4668,2,0.0769,0.4681,76,85,99,0.5522,1
23,1,136, S3-12.jpg,1, [181 10 240], purple,1,37,1,1,0.662,2,0.0705,0.6628,78,45,76,0.5766,0
23,1,137, S3-12.jpg,1, [10 240 94], green,0,36,2,0,0.6649,2,0.0399,0.6656,82,50,89,0.5766,0
23,1,138, S3-12.jpg,1, [181 10 240], purple,1,51,1,1,0.9163,2,0.0658,0.917,75,52,124,0.5766,0
23,1,139, S4-20.jpg,2, [181 10 240], purple,0,35,1,0,0.6451,2,0.1094,0.6462,94,68,121,0.5522,0
23,1,140, S3-12.jpg,1, [240 168 10], orange, NaN,35,2,0,0.6553,2,0.0636,0.6564,83,41,98,0.5766,0
23,1,141, S4-20.jpg,2, [10 240 94], green,1,109,2,1,1.96,2,0.1027,1.9614,136,52,76,0.5522,0
23,1,142, S4-20.jpg,2, [10 240 94], green,1,66,2,1,1.2215,2,0.4951,1.2222,97,41,75,0.5522,0
23,1,143, S3-12.jpg,1, [240 168 10], orange, NaN,49,2,0,0.8894,2,0.0045,0.8901,120,65,82,0.5766,0
23,1,144, S4-20.jpg,2, [10 240 94], green,1,154,2,1,2.761,2,0.2295,2.762,84,25,94,0.5522,0
23,1,145, S3-12.jpg,1, [181 10 240], purple,1,38,1,1,0.7085,2,0.1983,0.7094,82,27,76,0.5766,0
23,1,146, S3-12.jpg,1, [240 168 10], orange, NaN,42,2,0,0.7558,2,0.063,0.7567,91,39,76,0.5766,0
23,1,147, S4-20.jpg,2, [240 168 10], orange, NaN,35,2,1,0.6643,2,0.1219,0.665,77,33,93,0.5522,0
23,1,148, S4-20.jpg,2, [10 240 94], green,1,34,2,1,0.6171,2,0.2658,0.6178,116,37,98,0.5522,0
23,1,149, S3-12.jpg,1, [10 240 94], green,0,140,2,0,2.5545,2,0.353,2.5553,117,38,103,0.5766,0
23,1,150, S4-20.jpg,2, [10 240 94], green,1,36,2,1,0.7041,2,0.07,0.7051,125,57,130,0.5522,0
23,1,151, S4-20.jpg,2, [10 240 94], green,1,32,2,1,0.6471,2,0.0172,0.648,80,39,87,0.5522,1
23,1,152, S4-20.jpg,2, [10 240 94], green,1,27,2,1,0.4807,2,0.0002,0.4815,82,43,79,0.5522,0
23,1,153, S3-12.jpg,1, [181 10 240], purple,1,24,2,0,0.4111,2,0.0263,0.4119,87,43,101,0.5766,0
23,1,154, S4-20.jpg,2, [10 240 94], green,1,49,2,1,0.8878,2,0.0773,0.8886,107,69,97,0.5522,0
23,1,155, S3-12.jpg,1, [181 10 240], purple,1,33,1,1,0.5768,2,0.0003,0.5777,77,30,90,0.5766,0
23,1,156, S4-20.jpg,2, [10 240 94], green,1,31,2,1,0.5814,2,0.0003,0.5821,89,46,85,0.5522,0
23,1,157, S3-12.jpg,1, [181 10 240], purple,1,29,1,1,0.5429,2,0.0179,0.5486,95,37,83,0.5766,0
23,1,158, S4-20.jpg,2, [240 168 10], orange, NaN,41,2,1,0.7345,2,0.0003,0.7354,75,25,76,0.5522,0
23,1,159, S3-12.jpg,1, [10 240 94], green,0,29,2,0,0.5153,2,0.0003,0.5161,115,62,103,0.5766,0
23,1,160, S4-20.jpg,2, [181 10 240], purple,0,36,1,0,0.6745,2,0.0473,0.676,76,26,105,0.5522,0
23,1,161, S4-20.jpg,2, [10 240 94], green,1,44,2,1,0.7734,2,0.0003,0.7742,92,31,80,0.5522,1
23,1,162, S3-12.jpg,1, [181 10 240], purple,1,28,1,1,0.4964,2,0.0037,0.4971,75,33,128,0.5766,0
23,1,163, S3-12.jpg,1, [10 240 94], green,0,35,2,0,0.631,2,0.0537,0.6318,105,38,79,0.5766,0
23,1,164, S4-20.jpg,2, [10 240 94], green,1,32,2,1,0.5892,2,0.0105,0.5901,84,35,85,0.5522,0
23,1,165, S3-12.jpg,1, [240 168 10], orange, NaN,40,2,0,0.727,2,0.0124,0.728,91,87,94,0.5766,0
23,1,166, S3-12.jpg,1, [240 168 10], orange, NaN,32,2,0,0.6097,2,0.1065,0.6105,83,68,95,0.5766,0
23,1,167, S4-20.jpg,2, [10 240 94], green,1,48,2,1,0.8919,2,0.1121,0.8926,81,24,84,0.5522,0
23,1,168, S3-12.jpg,1, [240 168 10], orange, NaN,63,2,0,1.1587,2,0.0021,1.1597,99,38,86,0.5766,0
23,1,169, S3-12.jpg,1, [10 240 94], green,0,51,2,0,0.9087,2,0.1192,0.9096,97,36,110,0.5766,0
23,1,170, S4-20.jpg,2, [240 168 10], orange, NaN,45,2,1,0.8427,2,0.0623,0.8434,78,24,120,0.5522,0
23,1,171, S3-12.jpg,1, [181 10 240], purple,1,41,1,1,0.7555,2,0.0448,0.7565,98,28,92,0.5766,0
23,1,172, S3-12.jpg,1, [181 10 240], purple,1,26,1,1,0.4603,2,0.022,0.4611,76,35,109,0.5766,0
23,1,173, S3-12.jpg,1, [181 10 240], purple,1,33,1,1,0.6219,2,0.0425,0.623,96,77,101,0.5766,0
23,1,174, S3-12.jpg,1, [181 10 240], purple,1,41,1,1,0.7812,2,0.5511,0.782,90,41,88,0.5766,0
23,1,175, S4-20.jpg,2, [10 240 94], green,1,37,2,1,0.6613,2,0.1732,0.662,89,50,99,0.5522,0
23,1,176, S4-20.jpg,2, [240 168 10], orange, NaN,41,2,1,0.7452,2,0.0559,0.7459,83,42,79,0.5522,1
23,1,177, S3-12.jpg,1, [10 240 94], green,0,37,2,0,0.6981,2,0.2331,0.6989,103,43,85,0.5766,0
23,1,178, S4-20.jpg,2, [181 10 240], purple,0,43,1,0,0.8054,2,0.0549,0.8064,99,33,80,0.5522,0
23,1,179, S4-20.jpg,2, [10 240 94], green,1,34,2,1,0.6342,2,0.0101,0.6349,84,34,101,0.5522,0
23,1,180, S4-20.jpg,2, [240 168 10], orange, NaN,71,2,1,1.3135,2,0.2506,1.3145,78,59,88,0.5522,0
23,1,181, S4-20.jpg,2, [181 10 240], purple,0,28,1,0,0.5091,2,0.2104,0.5099,82,25,82,0.5522,0
23,1,182, S4-20.jpg,2, [240 168 10], orange, NaN,29,2,1,0.5129,2,0.1635,0.5136,76,29,77,0.5522,0
23,1,183, S3-12.jpg,1, [181 10 240], purple,1,26,1,1,0.4661,2,0.1115,0.4669,102,31,109,0.5766,1
23,1,184, S3-12.jpg,1, [181 10 240], purple,1,21,1,1,0.3677,2,0.1228,0.3685,90,39,103,0.5766,0
23,1,185, S4-20.jpg,2, [10 240 94], green,1,29,2,1,0.556,2,0.1335,0.5567,95,86,79,0.5522,0
23,1,186, S3-12.jpg,1, [181 10 240], purple,1,28,1,1,0.5079,2,0.4418,0.5088,85,27,133,0.5766,0
23,1,187, S3-12.jpg,1, [240 168 10], orange, NaN,36,2,0,0.7059,2,0.1861,0.7069,78,90,86,0.5766,0
23,1,188, S4-20.jpg,2, [181 10 240], purple,0,34,2,1,0.6263,2,0.4328,0.627,78,45,84,0.5522,0
23,1,189, S4-20.jpg,2, [10 240 94], green,1,28,2,1,0.5598,2,0.1397,0.5605,81,71,85,0.5522,0
23,1,190, S4-20.jpg,2, [240 168 10], orange, NaN,31,2,1,0.5585,2,0.3197,0.5594,91,27,122,0.5522,0
23,1,191, S4-20.jpg,2, [10 240 94], green,1,26,2,1,0.4429,2,0.2078,0.4444,80,51,75,0.5522,0
23,1,192, S4-20.jpg,2, [181 10 240], purple,0,35,1,0,0.6131,2,0.2381,0.6143,82,56,91,0.5522,0
23,1,193, S4-20.jpg,2, [10 240 94], green,1,33,2,1,0.5821,2,0.1071,0.5828,78,39,77,0.5522,0
23,1,194, S3-12.jpg,1, [181 10 240], purple,1,45,1,1,0.8144,2,0.4935,0.8153,130,35,77,0.5766,0
23,1,195, S4-20.jpg,2, [10 240 94], green,1,32,2,1,0.5603,2,0.2018,0.5612,118,29,88,0.5522,0
23,1,196, S4-20.jpg,2, [10 240 94], green,1,40,2,1,0.7164,2,0.1155,0.7171,86,34,119,0.5522,0
23,1,197, S3-12.jpg,1, [181 10 240], purple,1,32,1,1,0.5719,2,0.0766,0.5728,84,51,87,0.5766,0
23,1,198, S3-12.jpg,1, [181 10 240], purple,1,31,1,1,0.5899,2,0.1596,0.5907,76,26,126,0.5766,0
23,1,199, S3-12.jpg,1, [181 10 240], purple,1,34,1,1,0.6277,2,0.2304,0.6285,88,39,93,0.5766,0
23,1,200, S4-20.jpg,2, [10 240 94], green,1,36,2,1,0.6728,2,0.106,0.6737,81,23,80,0.5522,0
23,1,201, S4-20.jpg,2, [181 10 240], purple,0,29,1,0,0.5144,2,0.0889,0.5151,75,83,89,0.5522,0
23,1,202, S4-20.jpg,2, [10 240 94], green,1,29,2,1,0.539,2,0.1739,0.5398,85,46,107,0.5522,0
23,1,203, S3-12.jpg,1, [10 240 94], green,0,49,2,0,0.9207,2,0.0002,0.9214,81,39,116,0.5766,0
23,1,204, S3-12.jpg,1, [181 10 240], purple,1,40,1,1,0.6627,2,0.4211,0.6636,90,58,83,0.5766,1
23,1,205, S3-12.jpg,1, [181 10 240], purple,1,44,1,1,0.7494,2,0.3815,0.7501,100,23,76,0.5766,0
23,1,206, S3-12.jpg,1, [240 168 10], orange, NaN,34,2,0,0.6198,2,0.3312,0.6205,134,25,80,0.5766,0
23,1,207, S3-12.jpg,1, [240 168 10], orange, NaN,43,2,0,0.7903,2,0.2687,0.7912,77,26,88,0.5766,1
23,1,208, S3-12.jpg,1, [181 10 240], purple,1,39,1,1,0.708,2,0.1645,0.7087,114,46,75,0.5766,0
23,1,209, S4-20.jpg,2, [10 240 94], green,1,31,2,1,0.556,2,0.0471,0.5568,101,26,78,0.5522,0
23,1,210, S4-20.jpg,2, [240 168 10], orange, NaN,50,2,1,0.9339,2,0.0862,0.9346,82,25,118,0.5522,0
23,1,211, S3-12.jpg,1, [240 168 10], orange, NaN,44,2,0,0.7495,2,0.0436,0.7502,76,82,96,0.5766,0
23,1,212, S3-12.jpg,1, [181 10 240], purple,1,19,2,0,0.329,2,0.0839,0.3299,80,40,195,0.5766,1
23,1,213, S3-12.jpg,1, [181 10 240], purple,1,27,1,1,0.4716,2,0.0003,0.4736,76,55,83,0.5766,0
23,1,214, S4-20.jpg,2, [10 240 94], green,1,29,2,1,0.5609,2,0.0369,0.5616,109,28,113,0.5522,1
23,1,215, S4-20.jpg,2, [10 240 94], green,1,30,2,1,0.543,2,0.0679,0.5438,81,55,91,0.5522,0
23,1,216, S3-12.jpg,1, [10 240 94], green,0,29,2,0,0.5214,2,0.0827,0.5221,83,26,142,0.5766,0
23,1,217, S3-12.jpg,1, [181 10 240], purple,1,33,1,1,0.6197,2,0.0295,0.6204,138,25,75,0.5766,0
23,1,218, S3-12.jpg,1, [181 10 240], purple,1,35,1,1,0.6828,2,0.0036,0.6836,79,24,81,0.5766,0
23,1,219, S4-20.jpg,2, [10 240 94], green,1,35,2,1,0.604,2,0.1072,0.6049,82,53,86,0.5522,0
23,1,220, S3-12.jpg,1, [240 168 10], orange, NaN,38,2,0,0.6981,2,0.0183,0.6989,106,30,129,0.5766,0
23,1,221, S3-12.jpg,1, [10 240 94], green,0,64,2,0,1.2013,2,0.0405,1.2021,86,42,89,0.5766,0
23,1,222, S3-12.jpg,1, [181 10 240], purple,1,31,1,1,0.562,2,0.0042,0.5634,93,28,100,0.5766,0
23,1,223, S3-12.jpg,1, [181 10 240], purple,1,27,1,1,0.4661,2,0.1466,0.4671,79,35,77,0.5766,0
23,1,224, S4-20.jpg,2, [10 240 94], green,1,29,2,1,0.5211,2,0.0152,0.5218,141,30,96,0.5522,0
23,1,225, S4-20.jpg,2, [10 240 94], green,1,55,2,1,1.0219,2,0.1007,1.0229,88,44,87,0.5522,0
23,1,226, S4-20.jpg,2, [10 240 94], green,1,27,2,1,0.4718,2,0.1016,0.4727,86,54,120,0.5522,0
23,1,227, S3-12.jpg,1, [181 10 240], purple,1,30,1,1,0.577,2,0.0329,0.5777,137,32,100,0.5766,0
23,1,228, S4-20.jpg,2, [10 240 94], green,1,33,2,1,0.5879,2,0.0954,0.5889,93,64,99,0.5522,0
23,1,229, S4-20.jpg,2, [240 168 10], orange, NaN,33,2,1,0.65,2,0.0705,0.6508,86,37,115,0.5522,0
23,1,230, S3-12.jpg,1, [181 10 240], purple,1,29,1,1,0.5104,2,0.1823,0.5111,126,49,123,0.5766,0
23,1,231, S3-12.jpg,1, [10 240 94], green,0,46,2,0,0.8901,2,0.0011,0.8908,129,25,82,0.5766,0
23,1,232, S4-20.jpg,2, [181 10 240], purple,0,31,1,0,0.5761,2,0.0314,0.577,92,32,112,0.5522,0
23,1,233, S4-20.jpg,2, [181 10 240], purple,0,35,1,0,0.6595,2,0.0516,0.6603,104,58,77,0.5522,0
23,1,234, S3-12.jpg,1, [10 240 94], green,0,28,2,0,0.5035,2,0.1161,0.5043,108,88,137,0.5766,0
23,1,235, S3-12.jpg,1, [181 10 240], purple,1,48,1,1,0.9035,2,0.0982,0.9044,99,45,75,0.5766,0
23,1,236, S4-20.jpg,2, [181 10 240], purple,0,27,1,0,0.4939,2,0.3936,0.4946,123,44,85,0.5522,0
23,1,237, S4-20.jpg,2, [10 240 94], green,1,30,2,1,0.5476,2,0.001,0.5483,142,30,127,0.5522,0
23,1,238, S3-12.jpg,1, [181 10 240], purple,1,30,1,1,0.5285,2,0.1135,0.5294,132,30,84,0.5766,0
23,1,239, S3-12.jpg,1, [181 10 240], purple,1,27,1,1,0.4758,2,0.0642,0.4767,90,24,90,0.5766,0
23,1,240, S3-12.jpg,1, [181 10 240], purple,1,36,1,1,0.6729,2,0.1049,0.6738,121,24,80,0.5766,0
23,1,241, S4-20.jpg,2, [181 10 240], purple,0,23,1,0,0.4097,2,0.1073,0.4106,88,54,91,0.5522,0
23,1,242, S4-20.jpg,2, [10 240 94], green,1,83,2,1,1.5499,2,0.0002,1.5507,122,29,141,0.5522,0
23,1,243, S4-20.jpg,2, [10 240 94], green,1,26,2,1,0.4451,2,0.1485,0.4465,77,27,78,0.5522,0
23,1,244, S4-20.jpg,2, [10 240 94], green,1,24,2,1,0.4215,2,0.1247,0.4223,98,28,97,0.5522,0
23,1,245, S3-12.jpg,1, [181 10 240], purple,1,34,1,1,0.6116,2,0.0782,0.6124,91,44,79,0.5766,0
23,1,246, S3-12.jpg,1, [10 240 94], green,0,34,2,0,0.6406,2,0.2008,0.6414,110,73,125,0.5766,0
23,1,247, S4-20.jpg,2, [10 240 94], green,1,33,2,1,0.6103,2,0.2232,0.6113,83,74,139,0.5522,1
23,1,248, S4-20.jpg,2, [10 240 94], green,1,26,2,1,0.4462,2,0.0002,0.4469,90,25,81,0.5522,1
23,1,249, S4-20.jpg,2, [10 240 94], green,1,24,2,1,0.4437,2,0.0532,0.4445,87,32,93,0.5522,0
23,1,250, S4-20.jpg,2, [10 240 94], green,1,23,2,1,0.4025,2,0.0491,0.4034,75,28,80,0.5522,0
23,1,251, S3-12.jpg,1, [240 168 10], orange, NaN,39,2,0,0.6967,2,0.0343,0.6976,90,79,93,0.5766,0
23,1,252, S3-12.jpg,1, [181 10 240], purple,1,33,1,1,0.6269,2,0.0039,0.6276,100,44,110,0.5766,0
23,1,253, S3-12.jpg,1, [181 10 240], purple,1,29,1,1,0.5237,2,0.0405,0.5252,76,34,76,0.5766,0
23,1,254, S3-12.jpg,1, [181 10 240], purple,1,26,1,1,0.4314,2,0.0917,0.4322,80,35,76,0.5766,0
23,1,255, S4-20.jpg,2, [240 168 10], orange, NaN,38,2,1,0.6971,2,0.1545,0.6979,79,78,106,0.5522,0
23,1,256, S3-12.jpg,1, [240 168 10], orange, NaN,35,2,0,0.6581,2,0.0056,0.6589,78,38,96,0.5766,1
23,1,257, S4-20.jpg,2, [240 168 10], orange, NaN,27,2,1,0.4935,2,0.0002,0.4943,96,66,79,0.5522,0
23,1,258, S4-20.jpg,2, [10 240 94], green,1,31,2,1,0.5942,2,0.0005,0.5951,84,23,82,0.5522,0
23,1,259, S4-20.jpg,2, [10 240 94], green,1,27,2,1,0.4752,2,0.1307,0.4762,77,40,75,0.5522,0
23,1,260, S3-12.jpg,1, [181 10 240], purple,1,31,1,1,0.5644,2,0.1183,0.5658,92,50,91,0.5766,0
23,1,261, S4-20.jpg,2, [10 240 94], green,1,46,2,1,0.8175,2,0.0051,0.8189,79,42,83,0.5522,0
23,1,262, S3-12.jpg,1, [181 10 240], purple,1,31,1,1,0.5473,2,0.05,0.5483,81,26,87,0.5766,1
23,1,263, S4-20.jpg,2, [10 240 94], green,1,30,2,1,0.5777,2,0.0071,0.5785,103,76,94,0.5522,0
23,1,264, S4-20.jpg,2, [181 10 240], purple,0,30,1,0,0.5474,2,0.0079,0.5483,103,42,94,0.5522,0
23,1,265, S3-12.jpg,1, [181 10 240], purple,1,30,2,0,0.5297,1,0.0806,0.5306,100,41,85,0.5766,0
23,1,266, S4-20.jpg,2, [10 240 94], green,1,52,2,1,0.9472,2,0.0002,0.9485,78,64,105,0.5522,0
23,1,267, S4-20.jpg,2, [10 240 94], green,1,27,2,1,0.4915,2,0.0097,0.4923,85,34,82,0.5522,0
23,1,268, S4-20.jpg,2, [10 240 94], green,1,261,2,1,4.7157,2,0.4212,4.7165,111,44,90,0.5522,0
23,1,269, S4-20.jpg,2, [181 10 240], purple,0,32,1,0,0.5768,2,0.0664,0.5775,135,34,84,0.5522,0
23,1,270, S3-12.jpg,1, [240 168 10], orange, NaN,30,2,0,0.5532,2,0.0078,0.554,195,32,86,0.5766,0
23,1,271, S4-20.jpg,2, [10 240 94], green,1,41,2,1,0.7835,2,0.0384,0.7843,89,35,81,0.5522,0
23,1,272, S3-12.jpg,1, [240 168 10], orange, NaN,52,2,0,0.9556,2,0.1187,0.9566,77,28,108,0.5766,0
23,1,273, S4-20.jpg,2, [10 240 94], green,1,42,2,1,0.7723,2,0.1288,0.773,83,31,117,0.5522,0
23,1,274, S3-12.jpg,1, [181 10 240], purple,1,38,1,1,0.7166,2,0.0857,0.7175,80,24,83,0.5766,0
23,1,275, S4-20.jpg,2, [10 240 94], green,1,34,2,1,0.623,2,0.0811,0.6238,94,49,102,0.5522,0
23,1,276, S3-12.jpg,1, [240 168 10], orange, NaN,33,2,0,0.6572,2,0.0816,0.658,113,72,78,0.5766,0