"subID","block","trial","cueIdx","targetIdx","trueCongruence","response","accuracy","RT","respFrame","trueCue","coherence","noise1duration","signal1duration","noise2duration","signal2duration","signal1_onset","noise2_onset","signal2_onset"
32,1,1,2,2,"congruent",2,1,2.82201445799728,206,0.8,0.7,0.638888888888889,0.527777777777778,0.722222222222222,0.944444444444444,0.652777777777778,1.19444444444444,1.93055555555556
32,1,2,1,1,"congruent",1,1,2.31936945900088,171,0.8,0.7,0.680555555555556,0.569444444444444,1.09722222222222,NA,0.694444444444444,1.27777777777778,0
32,1,3,2,2,"congruent",2,1,1.91376108299301,128,0.8,0.7,0.638888888888889,0.541666666666667,0.569444444444444,NA,0.652777777777778,1.20833333333333,0
32,1,4,3,2,"neutral",2,1,2.61440266700811,183,0.5,0.7,0.638888888888889,0.430555555555556,0.666666666666667,0.777777777777778,0.652777777777778,1.09722222222222,1.77777777777778
32,1,5,2,2,"congruent",2,1,1.63403787500283,114,0.8,0.7,0.652777777777778,0.458333333333333,0.444444444444444,NA,0.666666666666667,1.13888888888889,0
32,1,6,2,2,"congruent",2,1,1.58594058400195,111,0.8,0.7,0.708333333333333,0.513888888888889,0.291666666666667,NA,0.722222222222222,1.25,0
32,1,7,1,1,"congruent",1,1,1.62181850000343,116,0.8,0.7,0.638888888888889,0.486111111111111,0.458333333333333,NA,0.652777777777778,1.15277777777778,0
32,1,8,2,2,"congruent",1,0,2.03935541700048,147,0.8,0.7,0.75,0.5,0.763888888888889,NA,0.763888888888889,1.27777777777778,0
32,1,10,1,1,"congruent",1,1,2.31486008300271,167,0.8,0.7,0.638888888888889,0.472222222222222,0.666666666666667,0.513888888888889,0.652777777777778,1.13888888888889,1.81944444444444
32,1,11,1,1,"congruent",1,1,2.3588689169992,170,0.8,0.7,0.986111111111111,0.597222222222222,0.680555555555556,0.0694444444444444,1,1.61111111111111,2.30555555555556
32,1,12,3,1,"neutral",2,0,1.62147333301255,117,0.5,0.7,0.666666666666667,0.638888888888889,0.291666666666667,NA,0.680555555555556,1.33333333333333,0
32,1,13,1,1,"congruent",1,1,2.6442439169914,191,0.8,0.7,0.666666666666667,0.430555555555556,0.652777777777778,0.875,0.680555555555556,1.125,1.79166666666667
32,1,14,3,1,"neutral",2,0,1.46832329100289,106,0.5,0.7,0.916666666666667,0.555555555555556,NA,NA,0.930555555555556,0,0
32,1,15,1,1,"congruent",1,1,1.61250637499325,116,0.8,0.7,0.694444444444444,0.472222222222222,0.416666666666667,NA,0.708333333333333,1.19444444444444,0
32,1,16,1,1,"congruent",1,1,1.61915779100673,118,0.8,0.7,0.75,0.458333333333333,0.402777777777778,NA,0.763888888888889,1.23611111111111,0
32,1,17,2,1,"incongruent",2,0,1.42336270899978,102,-0.8,0.7,0.75,0.444444444444444,0.194444444444444,NA,0.763888888888889,1.22222222222222,0
32,1,18,1,2,"incongruent",2,1,1.63320075000229,118,-0.8,0.7,0.847222222222222,0.791666666666667,NA,NA,0.861111111111111,0,0
32,1,19,3,2,"neutral",2,1,1.39818404198741,101,0.5,0.7,0.680555555555556,0.458333333333333,0.236111111111111,NA,0.694444444444444,1.16666666666667,0
32,1,21,2,2,"congruent",2,1,2.6685803750006,192,0.8,0.7,0.875,0.888888888888889,0.680555555555556,0.194444444444444,0.888888888888889,1.79166666666667,2.48611111111111
32,1,23,2,2,"congruent",2,1,1.52359904200421,110,0.8,0.7,0.805555555555556,0.5,0.194444444444444,NA,0.819444444444444,1.33333333333333,0
32,1,24,3,1,"neutral",2,0,1.56640654199873,113,0.5,0.7,0.652777777777778,0.430555555555556,0.458333333333333,NA,0.666666666666667,1.11111111111111,0
32,1,25,3,1,"neutral",1,1,2.53754366700014,183,0.5,0.7,0.694444444444444,0.625,0.638888888888889,0.555555555555556,0.708333333333333,1.34722222222222,2
32,1,26,2,2,"congruent",2,1,1.59308329199848,115,0.8,0.7,0.638888888888889,0.555555555555556,0.375,NA,0.652777777777778,1.22222222222222,0
32,1,27,1,1,"congruent",1,1,2.09779329199228,151,0.8,0.7,0.722222222222222,0.611111111111111,0.666666666666667,0.0694444444444444,0.736111111111111,1.36111111111111,2.04166666666667
32,1,29,2,2,"congruent",2,1,2.72886912499962,197,0.8,0.7,0.763888888888889,0.430555555555556,0.916666666666667,0.597222222222222,0.777777777777778,1.22222222222222,2.15277777777778
32,1,31,1,2,"incongruent",1,0,1.85945833299775,134,-0.8,0.7,0.75,0.430555555555556,0.652777777777778,NA,0.763888888888889,1.20833333333333,0
32,1,32,1,2,"incongruent",2,1,2.16209658399748,156,-0.8,0.7,0.680555555555556,0.430555555555556,0.722222222222222,0.305555555555556,0.694444444444444,1.13888888888889,1.875
32,1,33,1,1,"congruent",1,1,2.41469029198925,174,0.8,0.7,0.708333333333333,0.430555555555556,0.819444444444444,0.430555555555556,0.722222222222222,1.16666666666667,2
32,1,35,3,1,"neutral",1,1,2.24394770900835,162,0.5,0.7,0.666666666666667,0.513888888888889,0.736111111111111,0.305555555555556,0.680555555555556,1.20833333333333,1.95833333333333
32,1,36,1,2,"incongruent",1,0,2.43475070899876,176,-0.8,0.7,0.680555555555556,0.541666666666667,0.694444444444444,0.5,0.694444444444444,1.25,1.95833333333333
32,1,37,1,1,"congruent",1,1,1.45803145799437,105,0.8,0.7,1.125,0.333333333333333,NA,NA,1.13888888888889,0,0
32,1,38,1,1,"congruent",2,0,2.1412269170105,154,0.8,0.7,0.847222222222222,0.486111111111111,0.666666666666667,0.111111111111111,0.861111111111111,1.36111111111111,2.04166666666667
32,1,41,2,2,"congruent",2,1,2.09247462499479,151,0.8,0.7,1.01388888888889,0.638888888888889,0.416666666666667,NA,1.02777777777778,1.68055555555556,0
32,1,42,1,1,"congruent",1,1,2.21633737500815,160,0.8,0.7,0.736111111111111,0.5,0.666666666666667,0.291666666666667,0.75,1.26388888888889,1.94444444444444
32,1,43,1,1,"congruent",2,0,2.07896741700824,150,0.8,0.7,0.708333333333333,0.722222222222222,0.625,NA,0.722222222222222,1.45833333333333,0
32,1,44,3,2,"neutral",2,1,2.20473845799279,159,0.5,0.7,0.777777777777778,0.652777777777778,0.736111111111111,0.0138888888888889,0.791666666666667,1.45833333333333,2.20833333333333
32,1,45,2,2,"congruent",2,1,1.7174339589983,124,0.8,0.7,0.763888888888889,0.555555555555556,0.375,NA,0.777777777777778,1.34722222222222,0
32,1,47,3,2,"neutral",2,1,1.21605324999837,87,0.5,0.7,0.930555555555556,0.277777777777778,NA,NA,0.944444444444444,0,0
32,1,48,3,1,"neutral",1,1,1.40286924999964,101,0.5,0.7,0.694444444444444,0.444444444444444,0.236111111111111,NA,0.708333333333333,1.16666666666667,0
32,1,50,1,1,"congruent",2,0,1.95944941700145,141,0.8,0.7,0.680555555555556,0.527777777777778,0.666666666666667,0.0555555555555556,0.694444444444444,1.23611111111111,1.91666666666667
32,1,51,2,2,"congruent",2,1,2.27871408300416,164,0.8,0.7,0.805555555555556,0.722222222222222,0.722222222222222,NA,0.819444444444444,1.55555555555556,0
32,1,52,1,1,"congruent",1,1,1.33175608300371,96,0.8,0.7,0.680555555555556,0.541666666666667,0.0833333333333333,NA,0.694444444444444,1.25,0
32,1,53,1,2,"incongruent",2,1,2.27846066698839,164,-0.8,0.7,0.736111111111111,0.555555555555556,0.652777777777778,0.305555555555556,0.75,1.31944444444444,1.98611111111111
32,1,54,2,1,"incongruent",2,0,1.24774729199999,90,-0.8,0.7,0.722222222222222,0.430555555555556,0.0694444444444444,NA,0.736111111111111,1.18055555555556,0
32,1,55,3,2,"neutral",1,0,1.99498066600063,144,0.5,0.7,0.722222222222222,0.597222222222222,0.652777777777778,NA,0.736111111111111,1.34722222222222,0
32,1,56,3,2,"neutral",1,0,1.23219791699375,89,0.5,0.7,0.736111111111111,0.458333333333333,0.0138888888888889,NA,0.75,1.22222222222222,0
32,1,57,3,1,"neutral",2,0,1.62034804199357,117,0.5,0.7,1.25,0.375,NA,NA,1.26388888888889,0,0
32,1,58,3,1,"neutral",1,1,1.77282616699813,128,0.5,0.7,0.666666666666667,0.430555555555556,0.652777777777778,NA,0.680555555555556,1.125,0
32,1,60,2,1,"incongruent",2,0,2.16287854099937,156,-0.8,0.7,0.708333333333333,0.486111111111111,0.694444444444444,0.25,0.722222222222222,1.22222222222222,1.93055555555556
32,1,62,2,2,"congruent",2,1,3.49285916700319,240,0.8,0.7,0.75,0.458333333333333,0.694444444444444,1.40277777777778,0.763888888888889,1.23611111111111,1.94444444444444
32,1,63,3,1,"neutral",2,0,2.19200533301046,158,0.5,0.7,0.847222222222222,0.5,0.819444444444444,NA,0.861111111111111,1.375,0
32,1,64,2,2,"congruent",2,1,1.23725533401011,89,0.8,0.7,0.638888888888889,0.486111111111111,0.0833333333333333,NA,0.652777777777778,1.15277777777778,0
32,1,65,1,1,"congruent",1,1,2.17748679198849,156,0.8,0.7,0.638888888888889,0.458333333333333,0.708333333333333,0.333333333333333,0.652777777777778,1.125,1.84722222222222
32,1,66,1,2,"incongruent",2,1,2.07659137500741,149,-0.8,0.7,0.763888888888889,0.861111111111111,0.416666666666667,NA,0.777777777777778,1.65277777777778,0
32,1,67,1,1,"congruent",2,0,3.68320283301,240,0.8,0.7,0.652777777777778,0.791666666666667,0.902777777777778,0.958333333333333,0.666666666666667,1.47222222222222,2.38888888888889
32,1,68,1,1,"congruent",1,1,3.07682479200594,222,0.8,0.7,0.722222222222222,0.458333333333333,0.861111111111111,1.01388888888889,0.736111111111111,1.20833333333333,2.08333333333333
32,1,69,3,2,"neutral",2,1,2.11769683299644,152,0.5,0.7,0.833333333333333,0.472222222222222,0.777777777777778,NA,0.847222222222222,1.33333333333333,0
32,1,70,1,1,"congruent",2,0,1.97825999998895,143,0.8,0.7,0.75,0.527777777777778,0.680555555555556,NA,0.763888888888889,1.30555555555556,0
32,1,71,1,2,"incongruent",1,0,2.56625366699882,185,-0.8,0.7,0.944444444444444,0.541666666666667,0.805555555555556,0.25,0.958333333333333,1.51388888888889,2.33333333333333
32,1,72,1,2,"incongruent",2,1,1.86198541699559,134,-0.8,0.7,0.666666666666667,0.444444444444444,0.652777777777778,0.0694444444444444,0.680555555555556,1.13888888888889,1.80555555555556
32,1,73,2,2,"congruent",2,1,1.20475595800963,87,0.8,0.7,1.09722222222222,0.111111111111111,NA,NA,1.11111111111111,0,0
32,1,74,1,1,"congruent",1,1,2.90181412499805,209,0.8,0.7,0.666666666666667,0.430555555555556,1,0.777777777777778,0.680555555555556,1.125,2.13888888888889
32,1,75,2,2,"congruent",2,1,2.06643329199869,152,0.8,0.7,0.708333333333333,0.458333333333333,0.763888888888889,0.152777777777778,0.722222222222222,1.19444444444444,1.97222222222222
32,1,76,2,2,"congruent",NA,0,NA,240,0.8,0.7,0.75,0.583333333333333,0.694444444444444,1.27777777777778,0.763888888888889,1.36111111111111,2.06944444444444
32,1,77,2,2,"congruent",2,1,1.86917670800176,135,0.8,0.7,0.763888888888889,0.680555555555556,0.402777777777778,NA,0.777777777777778,1.47222222222222,0
32,1,78,2,2,"congruent",2,1,2.26045866700588,163,0.8,0.7,0.638888888888889,0.472222222222222,0.694444444444444,0.430555555555556,0.652777777777778,1.13888888888889,1.84722222222222
32,1,79,1,1,"congruent",1,1,1.54504087498935,111,0.8,0.7,0.694444444444444,0.486111111111111,0.333333333333333,NA,0.708333333333333,1.20833333333333,0
32,1,80,1,1,"congruent",1,1,2.02746812500118,147,0.8,0.7,0.944444444444444,0.472222222222222,0.597222222222222,NA,0.958333333333333,1.44444444444444,0
32,1,81,3,1,"neutral",1,1,2.90050925000105,208,0.5,0.7,0.652777777777778,0.513888888888889,0.680555555555556,1.01388888888889,0.666666666666667,1.19444444444444,1.88888888888889
32,1,82,2,1,"incongruent",2,0,1.47244683401368,106,-0.8,0.7,0.638888888888889,0.611111111111111,0.194444444444444,NA,0.652777777777778,1.27777777777778,0
32,1,83,3,2,"neutral",2,1,2.00538050000614,145,0.5,0.7,0.638888888888889,0.555555555555556,0.791666666666667,NA,0.652777777777778,1.22222222222222,0
32,1,84,1,1,"congruent",1,1,1.60670750000281,116,0.8,0.7,0.638888888888889,0.444444444444444,0.5,NA,0.652777777777778,1.11111111111111,0
32,1,85,2,2,"congruent",2,1,1.081204874994,78,0.8,0.7,0.75,0.333333333333333,NA,NA,0.763888888888889,0,0
32,1,86,3,1,"neutral",1,1,1.54995916699409,112,0.5,0.7,0.638888888888889,0.611111111111111,0.277777777777778,NA,0.652777777777778,1.27777777777778,0
32,1,87,3,2,"neutral",2,1,1.44162358299945,104,0.5,0.7,0.666666666666667,0.430555555555556,0.319444444444444,NA,0.680555555555556,1.125,0
32,1,88,1,1,"congruent",2,0,2.35119466600008,170,0.8,0.7,0.694444444444444,0.444444444444444,0.638888888888889,0.555555555555556,0.708333333333333,1.16666666666667,1.81944444444444
32,1,89,3,2,"neutral",2,1,1.83504504100711,132,0.5,0.7,0.694444444444444,0.763888888888889,0.347222222222222,NA,0.708333333333333,1.48611111111111,0
32,1,90,3,1,"neutral",1,1,3.12706099999195,225,0.5,0.7,0.791666666666667,0.5,0.652777777777778,1.15277777777778,0.805555555555556,1.31944444444444,1.98611111111111
32,1,91,1,1,"congruent",1,1,1.94700879100128,141,0.8,0.7,0.680555555555556,0.513888888888889,0.638888888888889,0.0972222222222222,0.694444444444444,1.22222222222222,1.875
32,1,92,1,1,"congruent",1,1,2.52716541600239,181,0.8,0.7,0.680555555555556,0.486111111111111,0.819444444444444,0.5,0.694444444444444,1.19444444444444,2.02777777777778
32,1,93,2,2,"congruent",2,1,1.65819908300182,120,0.8,0.7,0.666666666666667,0.680555555555556,0.291666666666667,NA,0.680555555555556,1.375,0
32,1,94,2,2,"congruent",2,1,2.02815116700367,146,0.8,0.7,0.694444444444444,0.569444444444444,0.736111111111111,NA,0.708333333333333,1.29166666666667,0
32,1,95,1,1,"congruent",1,1,1.70478724999703,123,0.8,0.7,0.736111111111111,0.652777777777778,0.291666666666667,NA,0.75,1.41666666666667,0
32,1,96,1,1,"congruent",1,1,1.52194074999716,110,0.8,0.7,0.791666666666667,0.694444444444444,0.0138888888888889,NA,0.805555555555556,1.51388888888889,0
32,1,97,1,2,"incongruent",1,0,2.15387754100084,155,-0.8,0.7,0.680555555555556,0.527777777777778,0.638888888888889,0.277777777777778,0.694444444444444,1.23611111111111,1.88888888888889
32,1,98,1,1,"congruent",1,1,2.40228495901101,173,0.8,0.7,0.638888888888889,0.486111111111111,0.75,0.5,0.652777777777778,1.15277777777778,1.91666666666667
32,1,99,3,2,"neutral",NA,0,NA,240,0.5,0.7,0.666666666666667,0.486111111111111,0.680555555555556,1.47222222222222,0.680555555555556,1.18055555555556,1.875
32,1,100,2,2,"congruent",1,0,1.90066970798944,137,0.8,0.7,0.763888888888889,0.472222222222222,0.638888888888889,NA,0.777777777777778,1.26388888888889,0
32,1,101,1,2,"incongruent",1,0,1.45827637499315,105,-0.8,0.7,0.75,0.638888888888889,0.0416666666666667,NA,0.763888888888889,1.41666666666667,0
32,1,102,1,1,"congruent",1,1,1.41973087500082,102,0.8,0.7,0.638888888888889,0.5,0.25,NA,0.652777777777778,1.16666666666667,0
32,1,103,2,2,"congruent",2,1,1.70173787500244,123,0.8,0.7,0.736111111111111,0.444444444444444,0.5,NA,0.75,1.20833333333333,0
32,1,104,3,1,"neutral",1,1,2.16289745800896,156,0.5,0.7,1.25,0.694444444444444,0.194444444444444,NA,1.26388888888889,1.97222222222222,0
32,1,106,3,1,"neutral",2,0,2.7437239169958,197,0.5,0.7,0.652777777777778,0.513888888888889,0.875,0.666666666666667,0.666666666666667,1.19444444444444,2.08333333333333
32,1,107,2,2,"congruent",2,1,2.27991104200191,164,0.8,0.7,0.652777777777778,0.444444444444444,0.791666666666667,0.361111111111111,0.666666666666667,1.125,1.93055555555556
32,1,108,1,1,"congruent",2,0,2.51691366599698,181,0.8,0.7,0.638888888888889,0.527777777777778,0.680555555555556,0.638888888888889,0.652777777777778,1.19444444444444,1.88888888888889
32,1,109,1,1,"congruent",2,0,1.6383909159922,118,0.8,0.7,0.833333333333333,0.597222222222222,0.180555555555556,NA,0.847222222222222,1.45833333333333,0
32,1,110,3,2,"neutral",2,1,2.19592433299113,158,0.5,0.7,0.680555555555556,0.5,0.861111111111111,0.125,0.694444444444444,1.20833333333333,2.08333333333333
32,1,111,1,1,"congruent",2,0,2.05428133301029,148,0.8,0.7,1.05555555555556,0.930555555555556,0.0416666666666667,NA,1.06944444444444,2.01388888888889,0
32,1,112,2,2,"congruent",2,1,1.37150424999709,99,0.8,0.7,0.652777777777778,0.444444444444444,0.25,NA,0.666666666666667,1.125,0
32,1,113,3,1,"neutral",2,0,1.13777995800774,82,0.5,0.7,1.06944444444444,0.0694444444444444,NA,NA,1.08333333333333,0,0
32,1,114,2,1,"incongruent",2,0,1.36869679199299,98,-0.8,0.7,0.763888888888889,0.527777777777778,0.0416666666666667,NA,0.777777777777778,1.31944444444444,0
32,1,115,2,2,"congruent",2,1,1.48551766699529,107,0.8,0.7,0.652777777777778,0.444444444444444,0.361111111111111,NA,0.666666666666667,1.125,0
32,1,116,2,1,"incongruent",2,0,1.88671329099452,136,-0.8,0.7,0.708333333333333,0.583333333333333,0.569444444444444,NA,0.722222222222222,1.31944444444444,0
32,1,117,1,1,"congruent",1,1,1.88464245799696,136,0.8,0.7,1.08333333333333,0.638888888888889,0.138888888888889,NA,1.09722222222222,1.75,0
32,1,118,2,1,"incongruent",2,0,2.80274454200116,202,-0.8,0.7,0.763888888888889,0.430555555555556,0.75,0.833333333333333,0.777777777777778,1.22222222222222,1.98611111111111
32,1,119,2,1,"incongruent",2,0,1.14036804100033,81,-0.8,0.7,0.638888888888889,0.430555555555556,0.0277777777777778,NA,0.652777777777778,1.09722222222222,0
32,1,120,2,2,"congruent",2,1,1.19899787500617,87,0.8,0.7,0.777777777777778,0.430555555555556,NA,NA,0.791666666666667,0,0
32,1,121,1,1,"congruent",1,1,1.68361783400178,121,0.8,0.7,0.708333333333333,0.472222222222222,0.472222222222222,NA,0.722222222222222,1.20833333333333,0
32,1,122,2,2,"congruent",2,1,2.63775362499291,190,0.8,0.7,0.861111111111111,0.611111111111111,0.75,0.388888888888889,0.875,1.5,2.26388888888889
32,1,123,1,1,"congruent",1,1,1.7919436670054,129,0.8,0.7,0.805555555555556,0.833333333333333,0.125,NA,0.819444444444444,1.66666666666667,0
32,1,124,2,2,"congruent",2,1,2.58117591700284,186,0.8,0.7,0.708333333333333,0.444444444444444,0.763888888888889,0.638888888888889,0.722222222222222,1.18055555555556,1.95833333333333
32,1,125,2,2,"congruent",2,1,2.66667141600919,192,0.8,0.7,0.763888888888889,0.458333333333333,0.652777777777778,0.763888888888889,0.777777777777778,1.25,1.91666666666667
32,1,127,1,1,"congruent",1,1,2.48331237499951,178,0.8,0.7,0.777777777777778,0.583333333333333,0.791666666666667,0.291666666666667,0.791666666666667,1.38888888888889,2.19444444444444
32,1,128,3,1,"neutral",2,0,2.74006062500121,197,0.5,0.7,0.638888888888889,0.763888888888889,0.680555555555556,0.625,0.652777777777778,1.43055555555556,2.125
32,1,129,2,2,"congruent",2,1,1.06296704200213,77,0.8,0.7,0.861111111111111,0.208333333333333,NA,NA,0.875,0,0
32,1,130,2,1,"incongruent",2,0,1.39629212499131,102,-0.8,0.7,0.805555555555556,0.430555555555556,0.152777777777778,NA,0.819444444444444,1.26388888888889,0
32,1,131,1,2,"incongruent",2,1,1.62687812499644,117,-0.8,0.7,0.958333333333333,0.513888888888889,0.125,NA,0.972222222222222,1.5,0
32,1,132,3,2,"neutral",2,1,2.5123641659884,181,0.5,0.7,0.888888888888889,0.472222222222222,0.763888888888889,0.361111111111111,0.902777777777778,1.38888888888889,2.16666666666667
32,1,133,2,2,"congruent",2,1,2.14738049999869,154,0.8,0.7,0.722222222222222,0.666666666666667,0.722222222222222,NA,0.736111111111111,1.41666666666667,0
32,1,134,3,1,"neutral",1,1,2.62299795799481,189,0.5,0.7,0.666666666666667,0.722222222222222,0.666666666666667,0.541666666666667,0.680555555555556,1.41666666666667,2.09722222222222
32,1,135,1,1,"congruent",2,0,2.34975925000617,169,0.8,0.7,0.736111111111111,0.819444444444444,0.763888888888889,NA,0.75,1.58333333333333,0
32,1,136,3,1,"neutral",1,1,1.81449733299087,131,0.5,0.7,0.791666666666667,0.583333333333333,0.416666666666667,NA,0.805555555555556,1.40277777777778,0
32,1,137,2,2,"congruent",2,1,2.358988958993,170,0.8,0.7,0.875,0.5,0.666666666666667,0.291666666666667,0.888888888888889,1.40277777777778,2.08333333333333
32,1,138,1,1,"congruent",2,0,3.18265537499974,229,0.8,0.7,0.652777777777778,0.458333333333333,0.694444444444444,1.34722222222222,0.666666666666667,1.13888888888889,1.84722222222222
32,1,139,1,1,"congruent",2,0,2.4306032500026,175,0.8,0.7,0.694444444444444,0.5,0.638888888888889,0.569444444444444,0.708333333333333,1.22222222222222,1.875
32,1,140,1,1,"congruent",2,0,2.84300224999606,205,0.8,0.7,0.791666666666667,0.486111111111111,0.708333333333333,0.833333333333333,0.805555555555556,1.30555555555556,2.02777777777778
32,1,141,1,2,"incongruent",2,1,1.97779824999452,142,-0.8,0.7,0.638888888888889,0.527777777777778,0.777777777777778,NA,0.652777777777778,1.19444444444444,0
32,1,142,1,1,"congruent",1,1,2.56928795800195,185,0.8,0.7,0.666666666666667,0.444444444444444,0.666666666666667,0.763888888888889,0.680555555555556,1.13888888888889,1.81944444444444
32,1,143,2,1,"incongruent",2,0,1.39347962499596,100,-0.8,0.7,0.694444444444444,0.625,0.0416666666666667,NA,0.708333333333333,1.34722222222222,0
32,1,144,1,1,"congruent",NA,0,NA,240,0.8,0.7,0.736111111111111,0.652777777777778,0.680555555555556,1.23611111111111,0.75,1.41666666666667,2.11111111111111
32,1,145,2,2,"congruent",2,1,1.17970700000296,85,0.8,0.7,0.708333333333333,0.430555555555556,0.0138888888888889,NA,0.722222222222222,1.16666666666667,0
32,1,146,2,2,"congruent",2,1,1.41713566699764,102,0.8,0.7,0.888888888888889,0.527777777777778,NA,NA,0.902777777777778,0,0
32,1,147,2,2,"congruent",2,1,0.814888416003669,59,0.8,0.7,0.666666666666667,0.152777777777778,NA,NA,0.680555555555556,0,0
32,1,148,1,1,"congruent",1,1,1.72177320800256,124,0.8,0.7,0.875,0.5,0.319444444444444,NA,0.888888888888889,1.40277777777778,0
32,1,149,3,2,"neutral",1,0,1.22140987499733,88,0.5,0.7,0.694444444444444,0.458333333333333,0.0416666666666667,NA,0.708333333333333,1.18055555555556,0
32,1,150,2,2,"congruent",1,0,1.3288137089985,96,0.8,0.7,0.819444444444444,0.430555555555556,0.0555555555555556,NA,0.833333333333333,1.27777777777778,0
32,1,151,2,2,"congruent",2,1,1.39702750000288,101,0.8,0.7,0.638888888888889,0.513888888888889,0.222222222222222,NA,0.652777777777778,1.18055555555556,0
32,1,152,3,2,"neutral",1,0,1.94080170799862,140,0.5,0.7,0.638888888888889,0.569444444444444,0.708333333333333,NA,0.652777777777778,1.23611111111111,0
32,1,154,2,2,"congruent",2,1,0.976654625002993,70,0.8,0.7,0.680555555555556,0.291666666666667,NA,NA,0.694444444444444,0,0
32,1,155,1,1,"congruent",2,0,1.11010200000601,80,0.8,0.7,0.666666666666667,0.444444444444444,NA,NA,0.680555555555556,0,0
32,1,156,2,2,"congruent",2,1,0.895633874999476,65,0.8,0.7,0.708333333333333,0.194444444444444,NA,NA,0.722222222222222,0,0
32,1,157,1,1,"congruent",1,1,1.12300287499966,81,0.8,0.7,1,0.125,NA,NA,1.01388888888889,0,0
32,1,158,2,2,"congruent",2,1,1.29780862499319,94,0.8,0.7,0.666666666666667,0.638888888888889,NA,NA,0.680555555555556,0,0
32,1,159,2,2,"congruent",2,1,1.46455870800128,106,0.8,0.7,0.888888888888889,0.430555555555556,0.125,NA,0.902777777777778,1.34722222222222,0
32,1,160,2,2,"congruent",2,1,1.20173283301119,87,0.8,0.7,0.972222222222222,0.236111111111111,NA,NA,0.986111111111111,0,0
32,1,162,1,2,"incongruent",2,1,1.45426762499847,105,-0.8,0.7,0.777777777777778,0.597222222222222,0.0555555555555556,NA,0.791666666666667,1.40277777777778,0
32,1,163,2,2,"congruent",1,0,1.92039099999238,138,0.8,0.7,0.694444444444444,0.444444444444444,0.666666666666667,0.0833333333333333,0.708333333333333,1.16666666666667,1.84722222222222
32,1,164,2,1,"incongruent",2,0,1.29208466599812,93,-0.8,0.7,0.930555555555556,0.361111111111111,NA,NA,0.944444444444444,0,0
32,1,165,2,1,"incongruent",1,1,1.88174912500835,135,-0.8,0.7,0.763888888888889,0.458333333333333,0.625,NA,0.777777777777778,1.25,0
32,1,166,3,2,"neutral",2,1,1.25509483400674,90,0.5,0.7,0.652777777777778,0.597222222222222,NA,NA,0.666666666666667,0,0
32,1,167,2,2,"congruent",2,1,1.50618674998987,108,0.8,0.7,0.652777777777778,0.486111111111111,0.333333333333333,NA,0.666666666666667,1.16666666666667,0
32,1,168,1,1,"congruent",1,1,1.63848816699465,118,0.8,0.7,0.916666666666667,0.722222222222222,NA,NA,0.930555555555556,0,0
32,1,169,1,1,"congruent",2,0,1.36272420799651,98,0.8,0.7,0.666666666666667,0.527777777777778,0.138888888888889,NA,0.680555555555556,1.22222222222222,0
32,1,170,1,1,"congruent",2,0,1.58833195899206,115,0.8,0.7,0.638888888888889,0.597222222222222,0.333333333333333,NA,0.652777777777778,1.26388888888889,0
32,1,171,3,2,"neutral",2,1,1.66563441700418,120,0.5,0.7,0.888888888888889,0.555555555555556,0.194444444444444,NA,0.902777777777778,1.47222222222222,0
32,1,173,1,1,"congruent",2,0,1.90989741700469,138,0.8,0.7,1.13888888888889,0.513888888888889,0.236111111111111,NA,1.15277777777778,1.68055555555556,0
32,1,174,1,2,"incongruent",2,1,1.30776316599804,94,-0.8,0.7,0.805555555555556,0.5,NA,NA,0.819444444444444,0,0
32,1,175,2,2,"congruent",2,1,1.29997749999166,94,0.8,0.7,0.708333333333333,0.597222222222222,NA,NA,0.722222222222222,0,0
32,1,176,2,2,"congruent",2,1,1.43465333399945,103,0.8,0.7,0.736111111111111,0.458333333333333,0.208333333333333,NA,0.75,1.22222222222222,0
32,1,177,1,1,"congruent",2,0,1.67205170899979,121,0.8,0.7,0.736111111111111,0.569444444444444,0.347222222222222,NA,0.75,1.33333333333333,0
32,1,178,1,1,"congruent",2,0,2.6672647499945,192,0.8,0.7,0.680555555555556,0.597222222222222,1,0.361111111111111,0.694444444444444,1.30555555555556,2.31944444444444
32,1,179,3,2,"neutral",2,1,1.37270358299429,99,0.5,0.7,0.666666666666667,0.708333333333333,NA,NA,0.680555555555556,0,0
32,1,180,2,2,"congruent",2,1,1.65265841600194,119,0.8,0.7,0.652777777777778,0.444444444444444,0.527777777777778,NA,0.666666666666667,1.125,0
32,1,181,3,1,"neutral",2,0,1.82740112500323,132,0.5,0.7,0.819444444444444,0.444444444444444,0.541666666666667,NA,0.833333333333333,1.29166666666667,0
32,1,182,1,2,"incongruent",1,0,1.81739783300145,131,-0.8,0.7,0.638888888888889,0.472222222222222,0.680555555555556,NA,0.652777777777778,1.13888888888889,0
32,1,183,1,1,"congruent",1,1,1.94434866699157,140,0.8,0.7,0.694444444444444,0.430555555555556,0.722222222222222,0.0694444444444444,0.708333333333333,1.15277777777778,1.88888888888889
32,1,184,2,2,"congruent",2,1,1.20644987499691,86,0.8,0.7,0.75,0.444444444444444,NA,NA,0.763888888888889,0,0
32,1,185,2,2,"congruent",2,1,1.68266204198881,121,0.8,0.7,0.680555555555556,0.486111111111111,0.486111111111111,NA,0.694444444444444,1.19444444444444,0
32,1,186,1,1,"congruent",2,0,1.9053788339952,137,0.8,0.7,0.833333333333333,0.569444444444444,0.472222222222222,NA,0.847222222222222,1.43055555555556,0
32,1,187,1,1,"congruent",1,1,1.75291087500227,126,0.8,0.7,0.861111111111111,0.583333333333333,0.277777777777778,NA,0.875,1.47222222222222,0
32,1,188,2,2,"congruent",1,0,1.63459249999141,118,0.8,0.7,1,0.541666666666667,0.0694444444444444,NA,1.01388888888889,1.56944444444444,0
32,1,189,2,2,"congruent",2,1,1.0257682500087,74,0.8,0.7,0.833333333333333,0.194444444444444,NA,NA,0.847222222222222,0,0
32,1,190,2,1,"incongruent",2,0,1.17925916700915,85,-0.8,0.7,0.777777777777778,0.402777777777778,NA,NA,0.791666666666667,0,0
32,1,191,2,2,"congruent",2,1,1.89961666701129,137,0.8,0.7,0.680555555555556,0.513888888888889,0.680555555555556,NA,0.694444444444444,1.22222222222222,0
32,1,192,1,1,"congruent",2,0,1.45380083299824,105,0.8,0.7,0.666666666666667,0.611111111111111,0.152777777777778,NA,0.680555555555556,1.30555555555556,0
32,1,193,3,2,"neutral",2,1,1.49958699999843,108,0.5,0.7,0.694444444444444,0.513888888888889,0.263888888888889,NA,0.708333333333333,1.23611111111111,0
32,1,194,2,2,"congruent",2,1,0.899305375001859,65,0.8,0.7,0.666666666666667,0.236111111111111,NA,NA,0.680555555555556,0,0
32,1,195,1,1,"congruent",1,1,1.75066337500175,126,0.8,0.7,0.902777777777778,0.444444444444444,0.375,NA,0.916666666666667,1.375,0
32,1,196,1,1,"congruent",1,1,1.65980220799975,120,0.8,0.7,0.722222222222222,0.486111111111111,0.430555555555556,NA,0.736111111111111,1.23611111111111,0
32,1,197,2,1,"incongruent",2,0,2.22684895900602,160,-0.8,0.7,0.777777777777778,0.430555555555556,0.680555555555556,0.305555555555556,0.791666666666667,1.23611111111111,1.93055555555556
32,1,198,1,1,"congruent",2,0,1.88940404100867,136,0.8,0.7,0.722222222222222,0.486111111111111,0.652777777777778,NA,0.736111111111111,1.23611111111111,0
32,1,199,3,1,"neutral",2,0,1.00863391700841,73,0.5,0.7,0.847222222222222,0.166666666666667,NA,NA,0.861111111111111,0,0
32,1,200,1,1,"congruent",2,0,2.16316287498921,156,0.8,0.7,0.902777777777778,0.708333333333333,0.527777777777778,NA,0.916666666666667,1.63888888888889,0
32,1,201,2,2,"congruent",1,0,1.97281637499691,142,0.8,0.7,0.680555555555556,0.513888888888889,0.75,NA,0.694444444444444,1.22222222222222,0
32,1,202,2,2,"congruent",2,1,1.59350962498866,115,0.8,0.7,0.722222222222222,0.694444444444444,0.152777777777778,NA,0.736111111111111,1.44444444444444,0
32,1,203,2,2,"congruent",2,1,1.53672075000941,111,0.8,0.7,0.652777777777778,0.458333333333333,0.402777777777778,NA,0.666666666666667,1.13888888888889,0
32,1,204,2,2,"congruent",2,1,2.10556608300249,152,0.8,0.7,0.708333333333333,0.5,0.638888888888889,0.236111111111111,0.722222222222222,1.23611111111111,1.88888888888889
32,1,205,1,1,"congruent",2,0,2.83917666699563,205,0.8,0.7,0.972222222222222,0.444444444444444,0.805555555555556,0.597222222222222,0.986111111111111,1.44444444444444,2.26388888888889
32,1,206,1,2,"incongruent",2,1,1.15371479200257,83,-0.8,0.7,0.652777777777778,0.5,NA,NA,0.666666666666667,0,0
32,1,207,2,2,"congruent",2,1,1.20561608299613,87,0.8,0.7,0.680555555555556,0.527777777777778,NA,NA,0.694444444444444,0,0
32,1,208,2,1,"incongruent",1,1,1.71990545799781,124,-0.8,0.7,0.680555555555556,0.902777777777778,0.111111111111111,NA,0.694444444444444,1.61111111111111,0
32,1,209,1,1,"congruent",1,1,1.97902250000334,142,0.8,0.7,0.930555555555556,0.527777777777778,0.486111111111111,NA,0.944444444444444,1.48611111111111,0
32,1,210,1,2,"incongruent",1,0,1.47538262499438,107,-0.8,0.7,0.791666666666667,0.444444444444444,0.222222222222222,NA,0.805555555555556,1.26388888888889,0
32,1,211,1,1,"congruent",2,0,1.46776029199827,106,0.8,0.7,1.04166666666667,0.430555555555556,NA,NA,1.05555555555556,0,0
32,1,212,2,2,"congruent",2,1,2.23465141699126,162,0.8,0.7,0.638888888888889,0.444444444444444,0.763888888888889,0.375,0.652777777777778,1.11111111111111,1.88888888888889
32,1,214,1,1,"congruent",1,1,2.15761795800063,156,0.8,0.7,0.777777777777778,0.472222222222222,0.708333333333333,0.180555555555556,0.791666666666667,1.27777777777778,2
32,1,215,1,1,"congruent",1,1,1.32299308299844,95,0.8,0.7,0.708333333333333,0.5,0.0833333333333333,NA,0.722222222222222,1.23611111111111,0
32,1,216,1,1,"congruent",1,1,1.35481512499973,98,0.8,0.7,0.652777777777778,0.472222222222222,0.208333333333333,NA,0.666666666666667,1.15277777777778,0
32,1,217,3,2,"neutral",2,1,2.18153241700202,156,0.5,0.7,0.694444444444444,0.652777777777778,0.652777777777778,0.138888888888889,0.708333333333333,1.375,2.04166666666667
32,1,218,2,2,"congruent",2,1,1.70100304100197,123,0.8,0.7,0.819444444444444,0.444444444444444,0.416666666666667,NA,0.833333333333333,1.29166666666667,0
32,1,219,1,1,"congruent",2,0,1.55475679200026,112,0.8,0.7,0.680555555555556,0.458333333333333,0.388888888888889,NA,0.694444444444444,1.16666666666667,0
32,1,220,2,1,"incongruent",2,0,1.70216533399071,123,-0.8,0.7,0.805555555555556,0.583333333333333,0.291666666666667,NA,0.819444444444444,1.41666666666667,0
32,1,221,1,1,"congruent",2,0,1.75910524999199,127,0.8,0.7,0.666666666666667,0.444444444444444,0.625,NA,0.680555555555556,1.13888888888889,0
32,1,223,3,1,"neutral",2,0,1.6886417499918,121,0.5,0.7,0.652777777777778,0.430555555555556,0.569444444444444,NA,0.666666666666667,1.11111111111111,0
32,1,224,1,1,"congruent",1,1,1.36471487500239,98,0.8,0.7,0.958333333333333,0.402777777777778,NA,NA,0.972222222222222,0,0
32,1,225,1,1,"congruent",2,0,1.63252237500274,117,0.8,0.7,0.916666666666667,0.708333333333333,NA,NA,0.930555555555556,0,0
32,1,226,2,2,"congruent",2,1,1.18889445900277,86,0.8,0.7,0.638888888888889,0.458333333333333,0.0694444444444444,NA,0.652777777777778,1.125,0
32,1,227,1,2,"incongruent",1,0,1.51163616598933,109,-0.8,0.7,0.722222222222222,0.527777777777778,0.236111111111111,NA,0.736111111111111,1.27777777777778,0
32,1,228,1,1,"congruent",1,1,1.7186203750025,124,0.8,0.7,0.652777777777778,0.458333333333333,0.583333333333333,NA,0.666666666666667,1.13888888888889,0
32,1,229,2,2,"congruent",2,1,2.32975433400134,168,0.8,0.7,0.694444444444444,0.458333333333333,0.708333333333333,0.444444444444444,0.708333333333333,1.18055555555556,1.90277777777778
32,1,230,3,2,"neutral",1,0,2.23919866599317,161,0.5,0.7,0.819444444444444,0.625,0.763888888888889,NA,0.833333333333333,1.47222222222222,0
32,1,231,1,1,"congruent",2,0,2.15753287500411,155,0.8,0.7,0.736111111111111,0.5,0.708333333333333,0.180555555555556,0.75,1.26388888888889,1.98611111111111
32,1,232,1,1,"congruent",1,1,1.40255074999004,101,0.8,0.7,0.666666666666667,0.513888888888889,0.194444444444444,NA,0.680555555555556,1.20833333333333,0
32,1,233,3,1,"neutral",2,0,2.26319679200242,163,0.5,0.7,1.11111111111111,0.472222222222222,0.652777777777778,NA,1.125,1.61111111111111,0
32,1,235,2,1,"incongruent",1,1,2.73513329199341,197,-0.8,0.7,0.652777777777778,0.680555555555556,0.680555555555556,0.694444444444444,0.666666666666667,1.36111111111111,2.05555555555556
32,1,236,2,2,"congruent",2,1,1.27588929199555,92,0.8,0.7,0.75,0.527777777777778,NA,NA,0.763888888888889,0,0
32,1,238,2,2,"congruent",2,1,0.929432125005405,67,0.8,0.7,0.722222222222222,0.208333333333333,NA,NA,0.736111111111111,0,0
32,1,239,2,2,"congruent",1,0,2.45466416599811,177,0.8,0.7,0.722222222222222,0.555555555555556,0.75,0.402777777777778,0.736111111111111,1.30555555555556,2.06944444444444
32,1,240,2,2,"congruent",2,1,1.18035249999957,85,0.8,0.7,0.861111111111111,0.319444444444444,NA,NA,0.875,0,0
32,1,241,2,2,"congruent",2,1,1.63466887500545,118,0.8,0.7,0.666666666666667,0.541666666666667,0.402777777777778,NA,0.680555555555556,1.23611111111111,0
32,1,242,1,1,"congruent",2,0,2.45622629100399,177,0.8,0.7,0.694444444444444,0.430555555555556,0.819444444444444,0.486111111111111,0.708333333333333,1.15277777777778,1.98611111111111
32,1,243,2,1,"incongruent",2,0,1.09812966699246,79,-0.8,0.7,0.875,0.222222222222222,NA,NA,0.888888888888889,0,0
32,1,244,1,1,"congruent",2,0,1.08303204098775,78,0.8,0.7,0.652777777777778,0.430555555555556,NA,NA,0.666666666666667,0,0
32,1,245,1,2,"incongruent",1,0,1.74673966600676,126,-0.8,0.7,0.986111111111111,0.555555555555556,0.180555555555556,NA,1,1.56944444444444,0
32,1,246,3,1,"neutral",2,0,1.30119025000022,93,0.5,0.7,0.722222222222222,0.541666666666667,0,NA,0.736111111111111,1.29166666666667,0
32,1,247,2,2,"congruent",2,1,1.2444833329937,90,0.8,0.7,0.791666666666667,0.458333333333333,NA,NA,0.805555555555556,0,0
32,1,248,2,2,"congruent",2,1,2.18481379099831,157,0.8,0.7,0.666666666666667,0.611111111111111,0.638888888888889,0.236111111111111,0.680555555555556,1.30555555555556,1.95833333333333
32,1,249,2,2,"congruent",2,1,2.05787595899892,148,0.8,0.7,0.680555555555556,0.597222222222222,0.75,NA,0.694444444444444,1.30555555555556,0
32,1,250,3,1,"neutral",1,1,1.93069858300441,139,0.5,0.7,0.736111111111111,0.527777777777778,0.638888888888889,NA,0.75,1.29166666666667,0
32,1,251,2,2,"congruent",NA,0,NA,240,0.8,0.7,0.777777777777778,0.472222222222222,0.694444444444444,1.36111111111111,0.791666666666667,1.27777777777778,1.98611111111111
32,1,252,2,2,"congruent",2,1,0.954187666007783,69,0.8,0.7,0.638888888888889,0.319444444444444,NA,NA,0.652777777777778,0,0
32,1,253,1,1,"congruent",1,1,2.15219004100072,155,0.8,0.7,0.805555555555556,0.583333333333333,0.652777777777778,0.0833333333333333,0.819444444444444,1.41666666666667,2.08333333333333
32,1,254,2,2,"congruent",2,1,1.75872933299979,127,0.8,0.7,0.638888888888889,0.555555555555556,0.541666666666667,NA,0.652777777777778,1.22222222222222,0
32,1,255,3,1,"neutral",2,0,2.01015733300301,145,0.5,0.7,0.736111111111111,0.736111111111111,0.513888888888889,NA,0.75,1.5,0
32,1,258,2,2,"congruent",2,1,1.3548573750013,98,0.8,0.7,0.708333333333333,0.486111111111111,0.138888888888889,NA,0.722222222222222,1.22222222222222,0
32,1,260,1,1,"congruent",2,0,2.54070925000997,183,0.8,0.7,0.75,0.458333333333333,0.694444444444444,0.611111111111111,0.763888888888889,1.23611111111111,1.94444444444444
32,1,261,3,2,"neutral",2,1,2.37033658300061,171,0.5,0.7,0.638888888888889,0.708333333333333,1,NA,0.652777777777778,1.375,0
32,1,262,1,1,"congruent",1,1,1.77018708399555,128,0.8,0.7,0.861111111111111,0.777777777777778,0.111111111111111,NA,0.875,1.66666666666667,0
32,1,263,2,2,"congruent",2,1,2.33926833300211,170,0.8,0.7,0.763888888888889,0.430555555555556,0.763888888888889,0.375,0.777777777777778,1.22222222222222,2
32,1,264,1,2,"incongruent",1,0,2.20702008300577,159,-0.8,0.7,0.652777777777778,0.555555555555556,0.736111111111111,0.236111111111111,0.666666666666667,1.23611111111111,1.98611111111111
32,1,265,2,1,"incongruent",1,1,2.93856345899985,212,-0.8,0.7,0.763888888888889,0.5,0.680555555555556,0.972222222222222,0.777777777777778,1.29166666666667,1.98611111111111
32,1,266,1,1,"congruent",1,1,2.14950445799332,154,0.8,0.7,0.694444444444444,0.472222222222222,0.944444444444444,NA,0.708333333333333,1.19444444444444,0
32,1,267,2,2,"congruent",2,1,2.18500225000025,157,0.8,0.7,1.25,0.458333333333333,0.444444444444444,NA,1.26388888888889,1.73611111111111,0
32,1,268,2,2,"congruent",2,1,1.73147904200596,125,0.8,0.7,0.666666666666667,0.555555555555556,0.486111111111111,NA,0.680555555555556,1.25,0
32,1,269,2,2,"congruent",2,1,2.35512904101051,170,0.8,0.7,0.902777777777778,0.625,0.722222222222222,0.0833333333333333,0.916666666666667,1.55555555555556,2.29166666666667
32,1,270,3,2,"neutral",2,1,1.50938729100744,108,0.5,0.7,0.666666666666667,0.458333333333333,0.347222222222222,NA,0.680555555555556,1.15277777777778,0
32,1,271,2,1,"incongruent",1,1,2.57476537500042,186,-0.8,0.7,0.708333333333333,0.472222222222222,0.638888888888889,0.736111111111111,0.722222222222222,1.20833333333333,1.86111111111111
32,1,272,1,1,"congruent",NA,0,NA,240,0.8,0.7,0.652777777777778,0.430555555555556,0.791666666666667,1.43055555555556,0.666666666666667,1.11111111111111,1.91666666666667
32,1,273,3,2,"neutral",2,1,2.29363804199966,165,0.5,0.7,0.652777777777778,0.472222222222222,0.847222222222222,0.291666666666667,0.666666666666667,1.15277777777778,2.01388888888889
32,1,275,3,2,"neutral",2,1,2.44764399999985,176,0.5,0.7,0.708333333333333,0.555555555555556,0.736111111111111,0.416666666666667,0.722222222222222,1.29166666666667,2.04166666666667
33,1,1,3,1,"neutral",1,1,2.08978329199999,151,0.5,0.7,0.722222222222222,0.444444444444444,0.75,0.152777777777778,0.736111111111111,1.19444444444444,1.95833333333333
33,1,2,1,1,"congruent",2,0,2.03038454100033,145,0.8,0.7,0.694444444444444,0.472222222222222,0.791666666666667,0.0277777777777778,0.708333333333333,1.19444444444444,2
33,1,3,2,2,"congruent",1,0,2.98815458299987,215,0.8,0.7,0.777777777777778,0.555555555555556,0.680555555555556,0.944444444444444,0.791666666666667,1.36111111111111,2.05555555555556
33,1,4,1,1,"congruent",1,1,3.52585266599999,240,0.8,0.7,0.722222222222222,0.472222222222222,0.666666666666667,1.44444444444444,0.736111111111111,1.22222222222222,1.90277777777778
33,1,5,1,1,"congruent",1,1,3.86733479200029,240,0.8,0.7,0.736111111111111,0.527777777777778,0.833333333333333,1.20833333333333,0.75,1.29166666666667,2.13888888888889
33,1,6,2,2,"congruent",2,1,2.97913537500017,215,0.8,0.7,0.736111111111111,0.486111111111111,0.708333333333333,1.02777777777778,0.75,1.25,1.97222222222222
33,1,8,3,2,"neutral",2,1,1.90674941700036,138,0.5,0.7,0.722222222222222,0.652777777777778,0.513888888888889,NA,0.736111111111111,1.40277777777778,0
33,1,9,1,2,"incongruent",1,0,2.35614679200035,170,-0.8,0.7,0.777777777777778,0.5,0.694444444444444,0.361111111111111,0.791666666666667,1.30555555555556,2.01388888888889
33,1,11,2,2,"congruent",2,1,2.28319495899996,165,0.8,0.7,0.680555555555556,0.763888888888889,0.694444444444444,0.125,0.694444444444444,1.47222222222222,2.18055555555556
33,1,12,1,1,"congruent",1,1,3.13049783300039,226,0.8,0.7,0.638888888888889,0.430555555555556,0.819444444444444,1.22222222222222,0.652777777777778,1.09722222222222,1.93055555555556
33,1,13,3,2,"neutral",2,1,3.41964475000032,240,0.5,0.7,0.722222222222222,0.513888888888889,0.666666666666667,1.40277777777778,0.736111111111111,1.26388888888889,1.94444444444444
33,1,14,1,1,"congruent",1,1,3.31998045799992,239,0.8,0.7,0.930555555555556,0.486111111111111,0.861111111111111,1.01388888888889,0.944444444444444,1.44444444444444,2.31944444444444
33,1,15,1,1,"congruent",1,1,2.63859920800041,190,0.8,0.7,0.638888888888889,0.527777777777778,0.708333333333333,0.736111111111111,0.652777777777778,1.19444444444444,1.91666666666667
33,1,16,1,1,"congruent",1,1,2.15079345799995,155,0.8,0.7,0.875,0.569444444444444,0.666666666666667,0.0138888888888889,0.888888888888889,1.47222222222222,2.15277777777778
33,1,17,3,1,"neutral",1,1,2.6597162500002,191,0.5,0.7,0.805555555555556,0.458333333333333,0.666666666666667,0.694444444444444,0.819444444444444,1.29166666666667,1.97222222222222
33,1,18,1,1,"congruent",1,1,2.07640758300022,150,0.8,0.7,0.638888888888889,0.458333333333333,0.833333333333333,0.125,0.652777777777778,1.125,1.97222222222222
33,1,19,1,2,"incongruent",2,1,3.6938255,240,-0.8,0.7,0.736111111111111,0.458333333333333,0.75,1.36111111111111,0.75,1.22222222222222,1.98611111111111
33,1,20,1,1,"congruent",1,1,3.15050508299964,227,0.8,0.7,1.06944444444444,0.444444444444444,0.638888888888889,0.972222222222222,1.08333333333333,1.54166666666667,2.19444444444444
33,1,21,2,2,"congruent",2,1,3.01161316700018,217,0.8,0.7,0.736111111111111,0.458333333333333,0.763888888888889,1.02777777777778,0.75,1.22222222222222,2
33,1,22,3,2,"neutral",2,1,2.06741562500019,149,0.5,0.7,0.791666666666667,0.513888888888889,0.736111111111111,NA,0.805555555555556,1.33333333333333,0
33,1,23,1,1,"congruent",1,1,2.79491374999998,202,0.8,0.7,0.666666666666667,0.5,0.722222222222222,0.888888888888889,0.680555555555556,1.19444444444444,1.93055555555556
33,1,24,2,2,"congruent",2,1,1.67749770799992,121,0.8,0.7,0.722222222222222,0.430555555555556,0.5,NA,0.736111111111111,1.18055555555556,0
33,1,25,1,1,"congruent",2,0,1.96891304200017,142,0.8,0.7,0.652777777777778,0.486111111111111,0.652777777777778,0.152777777777778,0.666666666666667,1.16666666666667,1.83333333333333
33,1,26,2,2,"congruent",2,1,2.07641316699983,150,0.8,0.7,0.722222222222222,0.541666666666667,0.638888888888889,0.152777777777778,0.736111111111111,1.29166666666667,1.94444444444444
33,1,27,2,2,"congruent",2,1,1.95017404100008,141,0.8,0.7,0.666666666666667,0.527777777777778,0.708333333333333,0.0277777777777778,0.680555555555556,1.22222222222222,1.94444444444444
33,1,28,1,2,"incongruent",1,0,2.05532679099997,148,-0.8,0.7,0.722222222222222,0.638888888888889,0.666666666666667,NA,0.736111111111111,1.38888888888889,0
33,1,29,3,2,"neutral",2,1,2.23519212499968,161,0.5,0.7,0.875,0.444444444444444,0.736111111111111,0.152777777777778,0.888888888888889,1.34722222222222,2.09722222222222
33,1,30,3,1,"neutral",1,1,1.76677920800012,127,0.5,0.7,0.819444444444444,0.597222222222222,0.319444444444444,NA,0.833333333333333,1.44444444444444,0
33,1,32,2,2,"congruent",2,1,2.50045991700017,180,0.8,0.7,0.861111111111111,0.5,0.638888888888889,0.472222222222222,0.875,1.38888888888889,2.04166666666667
33,1,33,1,1,"congruent",1,1,2.32787341599987,168,0.8,0.7,0.722222222222222,0.444444444444444,0.666666666666667,0.472222222222222,0.736111111111111,1.19444444444444,1.875
33,1,34,2,2,"congruent",1,0,2.20695816699981,159,0.8,0.7,0.694444444444444,0.527777777777778,0.777777777777778,0.180555555555556,0.708333333333333,1.25,2.04166666666667
33,1,35,2,2,"congruent",2,1,1.84451450000006,131,0.8,0.7,0.819444444444444,0.430555555555556,0.541666666666667,NA,0.833333333333333,1.27777777777778,0
33,1,36,1,1,"congruent",1,1,2.82814612500033,204,0.8,0.7,0.694444444444444,0.472222222222222,0.680555555555556,0.958333333333333,0.708333333333333,1.19444444444444,1.88888888888889
33,1,38,3,2,"neutral",2,1,2.58552854199979,187,0.5,0.7,0.680555555555556,0.5,0.694444444444444,0.694444444444444,0.694444444444444,1.20833333333333,1.91666666666667
33,1,40,1,1,"congruent",1,1,2.11368737500015,152,0.8,0.7,0.666666666666667,0.444444444444444,0.777777777777778,0.194444444444444,0.680555555555556,1.13888888888889,1.93055555555556
33,1,41,1,2,"incongruent",1,0,2.85361775000001,206,-0.8,0.7,0.694444444444444,0.486111111111111,0.902777777777778,0.75,0.708333333333333,1.20833333333333,2.125
33,1,42,2,2,"congruent",2,1,2.07328691700013,150,0.8,0.7,0.708333333333333,0.486111111111111,0.694444444444444,0.166666666666667,0.722222222222222,1.22222222222222,1.93055555555556
33,1,43,1,1,"congruent",1,1,1.85909333299969,134,0.8,0.7,0.833333333333333,0.555555555555556,0.444444444444444,NA,0.847222222222222,1.41666666666667,0
33,1,44,3,1,"neutral",2,0,3.30288312500033,240,0.5,0.7,0.638888888888889,0.430555555555556,0.680555555555556,1.55555555555556,0.652777777777778,1.09722222222222,1.79166666666667
33,1,45,1,1,"congruent",1,1,2.36947070799988,171,0.8,0.7,0.638888888888889,0.458333333333333,0.708333333333333,0.541666666666667,0.652777777777778,1.125,1.84722222222222
33,1,46,1,1,"congruent",1,1,3.19884391699998,230,0.8,0.7,0.680555555555556,0.569444444444444,0.722222222222222,1.19444444444444,0.694444444444444,1.27777777777778,2.01388888888889
33,1,47,2,2,"congruent",2,1,1.65963133299965,120,0.8,0.7,0.75,0.541666666666667,0.347222222222222,NA,0.763888888888889,1.31944444444444,0
33,1,48,2,1,"incongruent",1,1,2.43835562499999,176,-0.8,0.7,0.694444444444444,0.722222222222222,0.916666666666667,0.0833333333333333,0.708333333333333,1.44444444444444,2.375
33,1,49,1,1,"congruent",1,1,2.7548417500002,199,0.8,0.7,0.847222222222222,0.611111111111111,0.722222222222222,0.555555555555556,0.861111111111111,1.48611111111111,2.22222222222222
33,1,50,3,2,"neutral",2,1,1.61643308300017,116,0.5,0.7,0.652777777777778,0.819444444444444,0.111111111111111,NA,0.666666666666667,1.5,0
33,1,51,1,1,"congruent",2,0,2.38874200000009,172,0.8,0.7,0.763888888888889,0.527777777777778,1,0.0694444444444444,0.777777777777778,1.31944444444444,2.33333333333333
33,1,54,2,2,"congruent",2,1,3.06700008400003,221,0.8,0.7,0.930555555555556,0.5,0.666666666666667,0.944444444444444,0.944444444444444,1.45833333333333,2.13888888888889
33,1,55,2,2,"congruent",2,1,1.94057537500021,140,0.8,0.7,0.666666666666667,0.861111111111111,0.388888888888889,NA,0.680555555555556,1.55555555555556,0
33,1,56,1,1,"congruent",2,0,1.97025654200024,142,0.8,0.7,0.708333333333333,0.583333333333333,0.652777777777778,NA,0.722222222222222,1.31944444444444,0
33,1,57,2,2,"congruent",2,1,3.33793691700021,240,0.8,0.7,0.708333333333333,0.527777777777778,0.902777777777778,1.16666666666667,0.722222222222222,1.26388888888889,2.18055555555556
33,1,58,2,2,"congruent",2,1,1.5744947080002,114,0.8,0.7,0.805555555555556,0.625,0.125,NA,0.819444444444444,1.45833333333333,0
33,1,59,2,2,"congruent",2,1,2.37986245799993,172,0.8,0.7,0.652777777777778,0.458333333333333,0.708333333333333,0.541666666666667,0.666666666666667,1.13888888888889,1.86111111111111
33,1,60,3,2,"neutral",2,1,2.01000987499992,145,0.5,0.7,0.819444444444444,0.430555555555556,0.736111111111111,NA,0.833333333333333,1.27777777777778,0
33,1,61,2,2,"congruent",2,1,3.39943825,240,0.8,0.7,0.652777777777778,0.444444444444444,0.652777777777778,1.55555555555556,0.666666666666667,1.125,1.79166666666667
33,1,62,3,2,"neutral",2,1,1.6736806670001,121,0.5,0.7,0.680555555555556,0.625,0.347222222222222,NA,0.694444444444444,1.33333333333333,0
33,1,64,2,2,"congruent",2,1,1.71537287500041,124,0.8,0.7,0.736111111111111,0.75,0.208333333333333,NA,0.75,1.51388888888889,0
33,1,65,2,2,"congruent",2,1,3.09256633400037,223,0.8,0.7,0.680555555555556,0.513888888888889,0.666666666666667,1.20833333333333,0.694444444444444,1.22222222222222,1.90277777777778
33,1,66,1,1,"congruent",2,0,3.12959304100013,225,0.8,0.7,0.638888888888889,0.736111111111111,0.652777777777778,1.06944444444444,0.652777777777778,1.40277777777778,2.06944444444444
33,1,67,1,1,"congruent",1,1,2.12254358399969,153,0.8,0.7,0.708333333333333,0.458333333333333,0.736111111111111,0.194444444444444,0.722222222222222,1.19444444444444,1.94444444444444
33,1,68,2,2,"congruent",2,1,2.84074841699976,205,0.8,0.7,0.708333333333333,0.430555555555556,0.638888888888889,1.04166666666667,0.722222222222222,1.16666666666667,1.81944444444444
33,1,70,1,1,"congruent",1,1,3.03800362499987,219,0.8,0.7,0.763888888888889,0.611111111111111,0.638888888888889,1,0.777777777777778,1.40277777777778,2.05555555555556
33,1,71,1,1,"congruent",2,0,2.09471891699968,151,0.8,0.7,0.666666666666667,0.666666666666667,0.736111111111111,NA,0.680555555555556,1.36111111111111,0
33,1,72,2,2,"congruent",2,1,2.19735741600016,158,0.8,0.7,0.652777777777778,0.625,0.708333333333333,0.180555555555556,0.666666666666667,1.30555555555556,2.02777777777778
33,1,73,1,2,"incongruent",2,1,1.45898545799992,105,-0.8,0.7,0.777777777777778,0.486111111111111,0.166666666666667,NA,0.791666666666667,1.29166666666667,0
33,1,74,3,1,"neutral",1,1,1.64004029199987,118,0.5,0.7,0.638888888888889,0.430555555555556,0.541666666666667,NA,0.652777777777778,1.09722222222222,0
33,1,75,3,1,"neutral",1,1,1.95601266599988,141,0.5,0.7,0.902777777777778,0.513888888888889,0.513888888888889,NA,0.916666666666667,1.44444444444444,0
33,1,77,2,1,"incongruent",1,1,1.73910916599971,125,-0.8,0.7,0.763888888888889,0.458333333333333,0.486111111111111,NA,0.777777777777778,1.25,0
33,1,78,3,1,"neutral",1,1,2.016005167,145,0.5,0.7,0.680555555555556,0.569444444444444,0.652777777777778,0.0833333333333333,0.694444444444444,1.27777777777778,1.94444444444444
33,1,79,2,2,"congruent",1,0,1.76216704199987,127,0.8,0.7,0.680555555555556,0.555555555555556,0.5,NA,0.694444444444444,1.26388888888889,0
33,1,80,2,2,"congruent",2,1,1.76811366599986,128,0.8,0.7,0.652777777777778,0.444444444444444,0.652777777777778,NA,0.666666666666667,1.125,0
33,1,81,2,2,"congruent",1,0,2.81171170899961,203,0.8,0.7,0.722222222222222,0.583333333333333,0.805555555555556,0.680555555555556,0.736111111111111,1.33333333333333,2.15277777777778
33,1,82,2,1,"incongruent",1,1,1.9880222920001,143,-0.8,0.7,0.958333333333333,0.513888888888889,0.486111111111111,NA,0.972222222222222,1.5,0
33,1,83,2,2,"congruent",2,1,1.96542441600013,142,0.8,0.7,0.680555555555556,0.597222222222222,0.638888888888889,0.0277777777777778,0.694444444444444,1.30555555555556,1.95833333333333
33,1,84,2,2,"congruent",2,1,1.98108329100023,143,0.8,0.7,1.01388888888889,0.458333333333333,0.486111111111111,NA,1.02777777777778,1.5,0
33,1,85,2,2,"congruent",2,1,1.96525483400001,141,0.8,0.7,0.972222222222222,0.986111111111111,NA,NA,0.986111111111111,0,0
33,1,86,2,2,"congruent",2,1,2.18537766700001,157,0.8,0.7,0.694444444444444,0.5,0.722222222222222,0.236111111111111,0.708333333333333,1.22222222222222,1.95833333333333
33,1,87,2,2,"congruent",2,1,2.70826070800013,196,0.8,0.7,0.736111111111111,0.472222222222222,0.791666666666667,0.694444444444444,0.75,1.23611111111111,2.04166666666667
33,1,88,1,1,"congruent",1,1,1.67782120900029,121,0.8,0.7,0.847222222222222,0.708333333333333,0.0972222222222222,NA,0.861111111111111,1.58333333333333,0
33,1,89,2,2,"congruent",1,0,3.86739083400016,240,0.8,0.7,0.694444444444444,0.555555555555556,0.694444444444444,1.36111111111111,0.708333333333333,1.27777777777778,1.98611111111111
33,1,90,2,2,"congruent",2,1,2.2040473750003,159,0.8,0.7,0.875,0.444444444444444,0.763888888888889,0.0972222222222222,0.888888888888889,1.34722222222222,2.125
33,1,91,2,2,"congruent",2,1,1.49978933300008,108,0.8,0.7,0.638888888888889,0.486111111111111,0.347222222222222,NA,0.652777777777778,1.15277777777778,0
33,1,92,1,1,"congruent",2,0,1.791145959,130,0.8,0.7,0.902777777777778,0.513888888888889,0.361111111111111,NA,0.916666666666667,1.44444444444444,0
33,1,93,1,1,"congruent",1,1,1.84890183300013,133,0.8,0.7,0.805555555555556,0.430555555555556,0.583333333333333,NA,0.819444444444444,1.26388888888889,0
33,1,94,2,2,"congruent",2,1,1.88602908300027,136,0.8,0.7,0.638888888888889,0.527777777777778,0.694444444444444,NA,0.652777777777778,1.19444444444444,0
33,1,95,1,1,"congruent",2,0,1.67152033399998,120,0.8,0.7,0.694444444444444,0.666666666666667,0.277777777777778,NA,0.708333333333333,1.38888888888889,0
33,1,97,2,2,"congruent",2,1,1.66641933299979,120,0.8,0.7,0.777777777777778,0.666666666666667,0.194444444444444,NA,0.791666666666667,1.47222222222222,0
33,1,98,1,1,"congruent",2,0,2.55962008400002,185,0.8,0.7,0.930555555555556,0.486111111111111,0.652777777777778,0.472222222222222,0.944444444444444,1.44444444444444,2.11111111111111
33,1,100,1,2,"incongruent",2,1,2.09131870900001,151,-0.8,0.7,0.708333333333333,0.472222222222222,0.805555555555556,0.0833333333333333,0.722222222222222,1.20833333333333,2.02777777777778
33,1,101,1,1,"congruent",1,1,1.7158173329999,124,0.8,0.7,0.652777777777778,1.04166666666667,0,NA,0.666666666666667,1.72222222222222,0
33,1,102,2,2,"congruent",2,1,1.82499404100008,132,0.8,0.7,0.666666666666667,0.5,0.638888888888889,NA,0.680555555555556,1.19444444444444,0
33,1,103,2,2,"congruent",2,1,2.62294941600021,189,0.8,0.7,0.638888888888889,0.513888888888889,0.652777777777778,0.791666666666667,0.652777777777778,1.18055555555556,1.84722222222222
33,1,104,2,2,"congruent",2,1,1.81659583400005,131,0.8,0.7,0.722222222222222,0.430555555555556,0.638888888888889,NA,0.736111111111111,1.18055555555556,0
33,1,105,2,2,"congruent",2,1,2.58080337499996,186,0.8,0.7,0.791666666666667,0.486111111111111,0.763888888888889,0.513888888888889,0.805555555555556,1.30555555555556,2.08333333333333
33,1,106,2,2,"congruent",2,1,1.58217554200019,114,0.8,0.7,0.652777777777778,0.527777777777778,0.375,NA,0.666666666666667,1.20833333333333,0
33,1,107,3,1,"neutral",2,0,2.00781349999988,145,0.5,0.7,0.666666666666667,0.430555555555556,0.888888888888889,NA,0.680555555555556,1.125,0
33,1,108,1,1,"congruent",2,0,2.50857212499977,181,0.8,0.7,0.638888888888889,0.875,0.875,0.0972222222222222,0.652777777777778,1.54166666666667,2.43055555555556
33,1,110,3,1,"neutral",2,0,2.49272291699981,180,0.5,0.7,0.680555555555556,0.5,0.763888888888889,0.527777777777778,0.694444444444444,1.20833333333333,1.98611111111111
33,1,111,3,2,"neutral",2,1,1.98757791700064,144,0.5,0.7,0.666666666666667,0.458333333333333,0.638888888888889,0.208333333333333,0.680555555555556,1.15277777777778,1.80555555555556
33,1,112,2,2,"congruent",2,1,1.57822658300029,114,0.8,0.7,0.638888888888889,0.583333333333333,0.333333333333333,NA,0.652777777777778,1.25,0
33,1,113,1,1,"congruent",2,0,1.88182333400073,136,0.8,0.7,0.833333333333333,0.458333333333333,0.569444444444444,NA,0.847222222222222,1.31944444444444,0
33,1,114,1,1,"congruent",1,1,2.00255379200007,144,0.8,0.7,0.722222222222222,0.513888888888889,0.652777777777778,0.0833333333333333,0.736111111111111,1.26388888888889,1.93055555555556
33,1,115,3,1,"neutral",2,0,1.79550949999975,130,0.5,0.7,0.694444444444444,0.555555555555556,0.527777777777778,NA,0.708333333333333,1.27777777777778,0
33,1,116,3,1,"neutral",2,0,1.9514572500002,141,0.5,0.7,0.638888888888889,0.472222222222222,0.694444444444444,0.125,0.652777777777778,1.13888888888889,1.84722222222222
33,1,117,1,1,"congruent",1,1,1.53636562500014,111,0.8,0.7,0.791666666666667,0.444444444444444,0.277777777777778,NA,0.805555555555556,1.26388888888889,0
33,1,118,2,2,"congruent",2,1,1.71876820800026,123,0.8,0.7,0.666666666666667,0.472222222222222,0.541666666666667,NA,0.680555555555556,1.16666666666667,0
33,1,119,2,1,"incongruent",1,1,1.93759070800024,140,-0.8,0.7,0.666666666666667,0.430555555555556,0.638888888888889,0.180555555555556,0.680555555555556,1.125,1.77777777777778
33,1,120,1,2,"incongruent",2,1,1.74879966599929,126,-0.8,0.7,0.833333333333333,0.611111111111111,0.277777777777778,NA,0.847222222222222,1.47222222222222,0
33,1,121,1,1,"congruent",2,0,2.08609537499979,151,0.8,0.7,0.652777777777778,0.472222222222222,0.819444444444444,0.125,0.666666666666667,1.15277777777778,1.98611111111111
33,1,122,2,2,"congruent",2,1,1.87123737500042,135,0.8,0.7,1.08333333333333,0.541666666666667,0.222222222222222,NA,1.09722222222222,1.65277777777778,0
33,1,123,1,1,"congruent",2,0,1.55265358300039,112,0.8,0.7,0.652777777777778,0.611111111111111,0.263888888888889,NA,0.666666666666667,1.29166666666667,0
33,1,124,2,2,"congruent",2,1,1.93718075000015,140,0.8,0.7,0.833333333333333,0.722222222222222,0.361111111111111,NA,0.847222222222222,1.58333333333333,0
33,1,125,1,1,"congruent",1,1,1.52731674999995,110,0.8,0.7,0.638888888888889,0.458333333333333,0.402777777777778,NA,0.652777777777778,1.125,0
33,1,126,2,2,"congruent",1,0,2.85603762499977,206,0.8,0.7,0.763888888888889,0.777777777777778,0.708333333333333,0.583333333333333,0.777777777777778,1.56944444444444,2.29166666666667
33,1,127,1,2,"incongruent",2,1,1.8535833750002,134,-0.8,0.7,0.722222222222222,0.930555555555556,0.180555555555556,NA,0.736111111111111,1.68055555555556,0
33,1,128,1,1,"congruent",1,1,3.86207000000013,240,0.8,0.7,1.25,0.444444444444444,0.958333333333333,0.652777777777778,1.26388888888889,1.72222222222222,2.69444444444444
33,1,129,3,1,"neutral",1,1,2.65737579199958,191,0.5,0.7,1,0.625,0.791666666666667,0.208333333333333,1.01388888888889,1.65277777777778,2.45833333333333
33,1,130,1,2,"incongruent",2,1,1.69519112499984,122,-0.8,0.7,0.791666666666667,0.430555555555556,0.444444444444444,NA,0.805555555555556,1.25,0
33,1,131,3,2,"neutral",2,1,1.53782170900013,111,0.5,0.7,0.708333333333333,0.652777777777778,0.152777777777778,NA,0.722222222222222,1.38888888888889,0
33,1,132,2,2,"congruent",2,1,1.60689541700049,116,0.8,0.7,0.680555555555556,0.430555555555556,0.472222222222222,NA,0.694444444444444,1.13888888888889,0
33,1,134,2,1,"incongruent",1,1,1.89950641599989,137,-0.8,0.7,0.680555555555556,0.430555555555556,0.694444444444444,0.0694444444444444,0.694444444444444,1.13888888888889,1.84722222222222
33,1,135,1,2,"incongruent",2,1,1.75909395899998,127,-0.8,0.7,1.11111111111111,0.652777777777778,NA,NA,1.125,0,0
33,1,137,1,1,"congruent",1,1,2.27443608300018,164,0.8,0.7,0.75,0.555555555555556,0.930555555555556,0.0138888888888889,0.763888888888889,1.33333333333333,2.27777777777778
33,1,138,2,1,"incongruent",1,1,1.56666800000039,113,-0.8,0.7,0.75,0.597222222222222,0.194444444444444,NA,0.763888888888889,1.375,0
33,1,139,2,2,"congruent",2,1,1.53971866599932,111,0.8,0.7,0.722222222222222,0.597222222222222,0.194444444444444,NA,0.736111111111111,1.34722222222222,0
33,1,140,3,1,"neutral",1,1,2.23497554099959,161,0.5,0.7,0.75,0.638888888888889,0.763888888888889,0.0555555555555556,0.763888888888889,1.41666666666667,2.19444444444444
33,1,141,2,2,"congruent",2,1,2.30541516699941,166,0.8,0.7,0.638888888888889,0.444444444444444,0.666666666666667,0.527777777777778,0.652777777777778,1.11111111111111,1.79166666666667
33,1,142,1,1,"congruent",1,1,2.42057170899989,175,0.8,0.7,0.847222222222222,0.472222222222222,0.652777777777778,0.430555555555556,0.861111111111111,1.34722222222222,2.01388888888889
33,1,143,3,1,"neutral",1,1,2.70598645799964,195,0.5,0.7,0.708333333333333,0.472222222222222,0.694444444444444,0.805555555555556,0.722222222222222,1.20833333333333,1.91666666666667
33,1,144,1,1,"congruent",2,0,2.52053508300014,182,0.8,0.7,0.652777777777778,0.458333333333333,0.736111111111111,0.652777777777778,0.666666666666667,1.13888888888889,1.88888888888889
33,1,145,1,1,"congruent",1,1,1.60580295799991,116,0.8,0.7,0.638888888888889,0.5,0.444444444444444,NA,0.652777777777778,1.16666666666667,0
33,1,146,1,2,"incongruent",2,1,1.701887833,123,-0.8,0.7,0.777777777777778,0.763888888888889,0.138888888888889,NA,0.791666666666667,1.56944444444444,0
33,1,147,1,2,"incongruent",2,1,1.41262554200057,102,-0.8,0.7,0.666666666666667,0.430555555555556,0.291666666666667,NA,0.680555555555556,1.125,0
33,1,150,1,2,"incongruent",2,1,1.67730733299959,121,-0.8,0.7,0.680555555555556,0.444444444444444,0.527777777777778,NA,0.694444444444444,1.15277777777778,0
33,1,151,1,1,"congruent",2,0,1.63469175000046,118,0.8,0.7,0.666666666666667,0.541666666666667,0.402777777777778,NA,0.680555555555556,1.23611111111111,0
33,1,152,3,1,"neutral",2,0,2.14893812500031,155,0.5,0.7,0.916666666666667,0.541666666666667,0.666666666666667,NA,0.930555555555556,1.48611111111111,0
33,1,153,3,2,"neutral",2,1,2.59922916699998,188,0.5,0.7,0.638888888888889,0.472222222222222,0.986111111111111,0.486111111111111,0.652777777777778,1.13888888888889,2.13888888888889
33,1,154,1,1,"congruent",2,0,1.61816983300014,117,0.8,0.7,0.652777777777778,0.666666666666667,0.277777777777778,NA,0.666666666666667,1.34722222222222,0
33,1,155,2,2,"congruent",2,1,1.50716720800028,109,0.8,0.7,0.666666666666667,0.541666666666667,0.277777777777778,NA,0.680555555555556,1.23611111111111,0
33,1,156,2,1,"incongruent",2,0,2.30271325000012,166,-0.8,0.7,1.04166666666667,0.458333333333333,0.777777777777778,NA,1.05555555555556,1.52777777777778,0
33,1,158,1,1,"congruent",2,0,1.51143258299999,109,0.8,0.7,0.666666666666667,0.638888888888889,0.180555555555556,NA,0.680555555555556,1.33333333333333,0
33,1,159,2,1,"incongruent",2,0,1.57678850000048,114,-0.8,0.7,0.777777777777778,0.541666666666667,0.236111111111111,NA,0.791666666666667,1.34722222222222,0
33,1,160,1,1,"congruent",1,1,1.78837612500047,129,0.8,0.7,0.722222222222222,0.541666666666667,0.5,NA,0.736111111111111,1.29166666666667,0
33,1,161,1,1,"congruent",1,1,1.7112956660003,123,0.8,0.7,0.944444444444444,0.680555555555556,0.0555555555555556,NA,0.958333333333333,1.65277777777778,0
33,1,162,2,2,"congruent",2,1,1.67369900000085,121,0.8,0.7,0.638888888888889,0.5,0.513888888888889,NA,0.652777777777778,1.16666666666667,0
33,1,163,3,1,"neutral",1,1,1.72798266700011,125,0.5,0.7,0.652777777777778,0.611111111111111,0.444444444444444,NA,0.666666666666667,1.29166666666667,0
33,1,164,1,1,"congruent",1,1,1.83393700000033,132,0.8,0.7,0.75,0.805555555555556,0.25,NA,0.763888888888889,1.58333333333333,0
33,1,165,1,1,"congruent",1,1,1.79134749999957,129,0.8,0.7,0.777777777777778,0.569444444444444,0.416666666666667,NA,0.791666666666667,1.375,0
33,1,166,2,2,"congruent",2,1,1.73426420899978,122,0.8,0.7,0.694444444444444,0.888888888888889,0.0833333333333333,NA,0.708333333333333,1.61111111111111,0
33,1,167,3,2,"neutral",2,1,1.68182683299983,121,0.5,0.7,0.666666666666667,0.458333333333333,0.527777777777778,NA,0.680555555555556,1.15277777777778,0
33,1,168,3,1,"neutral",1,1,2.28481012500015,163,0.5,0.7,0.805555555555556,0.513888888888889,0.666666666666667,0.25,0.819444444444444,1.34722222222222,2.02777777777778
33,1,169,2,2,"congruent",2,1,1.60508104099972,115,0.8,0.7,0.638888888888889,0.430555555555556,0.5,NA,0.652777777777778,1.09722222222222,0
33,1,170,1,1,"congruent",1,1,2.66114587500033,192,0.8,0.7,0.763888888888889,0.513888888888889,0.736111111111111,0.625,0.777777777777778,1.30555555555556,2.05555555555556
33,1,171,3,2,"neutral",2,1,2.67288391700004,193,0.5,0.7,1.25,0.430555555555556,0.652777777777778,0.319444444444444,1.26388888888889,1.70833333333333,2.375
33,1,172,1,1,"congruent",1,1,2.00737595900046,145,0.8,0.7,0.819444444444444,0.583333333333333,0.583333333333333,NA,0.833333333333333,1.43055555555556,0
33,1,173,2,2,"congruent",2,1,1.69693966600062,122,0.8,0.7,0.805555555555556,0.75,0.111111111111111,NA,0.819444444444444,1.58333333333333,0
33,1,174,3,2,"neutral",2,1,1.56463245800023,113,0.5,0.7,0.708333333333333,0.472222222222222,0.361111111111111,NA,0.722222222222222,1.20833333333333,0
33,1,175,1,1,"congruent",2,0,1.89687558300011,137,0.8,0.7,0.861111111111111,0.569444444444444,0.444444444444444,NA,0.875,1.45833333333333,0
33,1,176,3,2,"neutral",1,0,1.98263220800072,143,0.5,0.7,0.75,0.569444444444444,0.638888888888889,NA,0.763888888888889,1.34722222222222,0
33,1,177,1,2,"incongruent",1,0,1.82763787500062,132,-0.8,0.7,0.680555555555556,0.486111111111111,0.638888888888889,NA,0.694444444444444,1.19444444444444,0
33,1,179,2,2,"congruent",2,1,2.37575629200001,171,0.8,0.7,1.05555555555556,0.847222222222222,0.444444444444444,NA,1.06944444444444,1.93055555555556,0
33,1,180,1,1,"congruent",1,1,2.06479187500008,149,0.8,0.7,0.888888888888889,0.527777777777778,0.625,NA,0.902777777777778,1.44444444444444,0
33,1,181,1,1,"congruent",1,1,1.56876949999969,113,0.8,0.7,0.652777777777778,0.444444444444444,0.444444444444444,NA,0.666666666666667,1.125,0
33,1,182,2,2,"congruent",1,0,1.88113512499967,135,0.8,0.7,0.694444444444444,0.541666666666667,0.611111111111111,NA,0.708333333333333,1.26388888888889,0
33,1,183,1,1,"congruent",1,1,2.59556254099971,187,0.8,0.7,0.944444444444444,0.430555555555556,0.680555555555556,0.513888888888889,0.958333333333333,1.40277777777778,2.09722222222222
33,1,184,3,1,"neutral",1,1,2.85580062500048,206,0.5,0.7,0.777777777777778,0.583333333333333,0.652777777777778,0.819444444444444,0.791666666666667,1.38888888888889,2.05555555555556
33,1,185,2,2,"congruent",2,1,2.16098516700004,156,0.8,0.7,0.847222222222222,0.638888888888889,0.652777777777778,NA,0.861111111111111,1.51388888888889,0
33,1,186,2,2,"congruent",2,1,2.64909858300052,191,0.8,0.7,0.638888888888889,0.708333333333333,0.666666666666667,0.611111111111111,0.652777777777778,1.375,2.05555555555556
33,1,188,1,1,"congruent",1,1,2.98177645800024,214,0.8,0.7,0.833333333333333,0.444444444444444,0.722222222222222,0.944444444444444,0.847222222222222,1.30555555555556,2.04166666666667
33,1,190,2,2,"congruent",2,1,2.37109883300036,171,0.8,0.7,0.791666666666667,0.472222222222222,0.666666666666667,0.416666666666667,0.805555555555556,1.29166666666667,1.97222222222222
33,1,191,1,1,"congruent",2,0,2.68995741599974,194,0.8,0.7,1.25,0.444444444444444,0.652777777777778,0.319444444444444,1.26388888888889,1.72222222222222,2.38888888888889
33,1,192,3,1,"neutral",2,0,2.61675145800018,189,0.5,0.7,0.736111111111111,0.597222222222222,0.680555555555556,0.583333333333333,0.75,1.36111111111111,2.05555555555556
33,1,193,2,2,"congruent",2,1,2.02775474999999,145,0.8,0.7,0.652777777777778,0.902777777777778,0.430555555555556,NA,0.666666666666667,1.58333333333333,0
33,1,194,3,2,"neutral",2,1,1.84792833399933,133,0.5,0.7,0.958333333333333,0.652777777777778,0.208333333333333,NA,0.972222222222222,1.63888888888889,0
33,1,195,2,1,"incongruent",1,1,2.59230320799998,187,-0.8,0.7,0.736111111111111,0.458333333333333,0.666666666666667,0.708333333333333,0.75,1.22222222222222,1.90277777777778
33,1,196,2,1,"incongruent",1,1,3.4775074170002,240,-0.8,0.7,0.805555555555556,0.444444444444444,0.652777777777778,1.40277777777778,0.819444444444444,1.27777777777778,1.94444444444444
33,1,197,1,1,"congruent",1,1,2.6437540830002,191,0.8,0.7,0.652777777777778,0.527777777777778,0.680555555555556,0.763888888888889,0.666666666666667,1.20833333333333,1.90277777777778
33,1,198,2,2,"congruent",2,1,1.8423252499997,133,0.8,0.7,0.972222222222222,0.597222222222222,0.25,NA,0.986111111111111,1.59722222222222,0
33,1,199,1,1,"congruent",1,1,2.54406162499981,183,0.8,0.7,0.652777777777778,0.652777777777778,0.666666666666667,0.541666666666667,0.666666666666667,1.33333333333333,2.01388888888889
33,1,200,1,1,"congruent",1,1,2.32982216600067,168,0.8,0.7,0.680555555555556,0.458333333333333,0.736111111111111,0.430555555555556,0.694444444444444,1.16666666666667,1.91666666666667
33,1,201,2,2,"congruent",2,1,1.78903120799987,129,0.8,0.7,0.680555555555556,0.541666666666667,0.541666666666667,NA,0.694444444444444,1.25,0
33,1,202,1,1,"congruent",2,0,1.74484691700036,126,0.8,0.7,0.763888888888889,0.486111111111111,0.472222222222222,NA,0.777777777777778,1.27777777777778,0
33,1,203,1,1,"congruent",2,0,1.68399454200062,121,0.8,0.7,0.652777777777778,0.486111111111111,0.513888888888889,NA,0.666666666666667,1.16666666666667,0
33,1,204,3,1,"neutral",2,0,1.85794179099958,134,0.5,0.7,0.694444444444444,0.694444444444444,0.444444444444444,NA,0.708333333333333,1.41666666666667,0
33,1,205,3,1,"neutral",2,0,2.00956937499996,145,0.5,0.7,0.694444444444444,0.5,0.791666666666667,NA,0.708333333333333,1.22222222222222,0
33,1,206,1,1,"congruent",1,1,1.85478779200002,134,0.8,0.7,0.75,0.430555555555556,0.638888888888889,0.0138888888888889,0.763888888888889,1.20833333333333,1.86111111111111
33,1,207,2,2,"congruent",2,1,2.03191408299972,147,0.8,0.7,0.763888888888889,0.458333333333333,0.791666666666667,NA,0.777777777777778,1.25,0
33,1,208,1,2,"incongruent",1,0,3.2831612910004,237,-0.8,0.7,0.722222222222222,0.444444444444444,0.708333333333333,1.38888888888889,0.736111111111111,1.19444444444444,1.91666666666667
33,1,209,3,1,"neutral",1,1,1.66569374999926,120,0.5,0.7,0.652777777777778,0.513888888888889,0.472222222222222,NA,0.666666666666667,1.19444444444444,0
33,1,210,2,2,"congruent",2,1,1.99762779199955,144,0.8,0.7,0.708333333333333,0.625,0.638888888888889,NA,0.722222222222222,1.36111111111111,0
33,1,211,3,2,"neutral",2,1,1.53287879199979,111,0.5,0.7,0.708333333333333,0.430555555555556,0.375,NA,0.722222222222222,1.16666666666667,0
33,1,212,2,1,"incongruent",1,1,1.82900716700078,132,-0.8,0.7,0.763888888888889,0.472222222222222,0.569444444444444,NA,0.777777777777778,1.26388888888889,0
33,1,213,3,2,"neutral",2,1,1.43333166600041,103,0.5,0.7,0.638888888888889,0.597222222222222,0.166666666666667,NA,0.652777777777778,1.26388888888889,0
33,1,214,1,1,"congruent",1,1,2.853123375,206,0.8,0.7,0.638888888888889,0.430555555555556,0.875,0.888888888888889,0.652777777777778,1.09722222222222,1.98611111111111
33,1,215,2,1,"incongruent",1,1,1.84648933300014,133,-0.8,0.7,0.652777777777778,0.458333333333333,0.708333333333333,NA,0.666666666666667,1.13888888888889,0
33,1,216,2,2,"congruent",2,1,3.13699095799984,226,0.8,0.7,0.694444444444444,0.708333333333333,0.708333333333333,1,0.708333333333333,1.43055555555556,2.15277777777778
33,1,217,2,2,"congruent",2,1,1.71499916700031,124,0.8,0.7,0.652777777777778,0.444444444444444,0.597222222222222,NA,0.666666666666667,1.125,0
33,1,218,1,1,"congruent",2,0,2.36980558300002,171,0.8,0.7,0.763888888888889,0.430555555555556,0.944444444444444,0.208333333333333,0.777777777777778,1.22222222222222,2.18055555555556
33,1,219,1,1,"congruent",2,0,2.04099345800023,147,0.8,0.7,0.986111111111111,0.430555555555556,0.597222222222222,NA,1,1.44444444444444,0
33,1,220,3,1,"neutral",2,0,3.04289266700016,219,0.5,0.7,0.75,0.486111111111111,0.638888888888889,1.13888888888889,0.763888888888889,1.26388888888889,1.91666666666667
33,1,221,3,2,"neutral",2,1,1.66939995899975,112,0.5,0.7,0.708333333333333,0.472222222222222,0.347222222222222,NA,0.722222222222222,1.20833333333333,0
33,1,222,2,2,"congruent",2,1,1.48077354100042,107,0.8,0.7,0.638888888888889,0.486111111111111,0.333333333333333,NA,0.652777777777778,1.15277777777778,0
33,1,223,1,1,"congruent",2,0,2.33785041600004,169,0.8,0.7,0.736111111111111,0.444444444444444,0.833333333333333,0.305555555555556,0.75,1.20833333333333,2.05555555555556
33,1,224,1,1,"congruent",1,1,1.94723525000063,140,0.8,0.7,0.861111111111111,0.486111111111111,0.569444444444444,NA,0.875,1.375,0
33,1,225,2,2,"congruent",2,1,1.69479333299932,124,0.8,0.7,0.638888888888889,0.458333333333333,0.597222222222222,NA,0.652777777777778,1.125,0
33,1,226,2,2,"congruent",2,1,2.89678766700035,209,0.8,0.7,0.694444444444444,0.444444444444444,0.736111111111111,1,0.708333333333333,1.16666666666667,1.91666666666667
33,1,227,1,1,"congruent",1,1,2.10639770800026,152,0.8,0.7,0.708333333333333,0.5,0.638888888888889,0.236111111111111,0.722222222222222,1.23611111111111,1.88888888888889
33,1,228,1,1,"congruent",1,1,2.30689216700011,166,0.8,0.7,0.75,0.444444444444444,0.944444444444444,0.138888888888889,0.763888888888889,1.22222222222222,2.18055555555556
33,1,229,2,2,"congruent",2,1,2.86491687499984,207,0.8,0.7,0.819444444444444,0.583333333333333,0.638888888888889,0.805555555555556,0.833333333333333,1.43055555555556,2.08333333333333
33,1,231,2,1,"incongruent",1,1,1.79397170799984,129,-0.8,0.7,0.708333333333333,0.527777777777778,0.527777777777778,NA,0.722222222222222,1.26388888888889,0
33,1,232,1,1,"congruent",1,1,3.58479183399959,240,0.8,0.7,0.888888888888889,0.555555555555556,0.888888888888889,0.972222222222222,0.902777777777778,1.47222222222222,2.375
33,1,233,1,2,"incongruent",2,1,1.74124599999959,125,-0.8,0.7,0.652777777777778,0.527777777777778,0.527777777777778,NA,0.666666666666667,1.20833333333333,0
33,1,234,2,2,"congruent",2,1,1.59253912499935,115,0.8,0.7,0.708333333333333,0.472222222222222,0.388888888888889,NA,0.722222222222222,1.20833333333333,0
33,1,235,1,1,"congruent",2,0,1.54487100000006,111,0.8,0.7,0.75,0.791666666666667,NA,NA,0.763888888888889,0,0
33,1,236,2,1,"incongruent",1,1,1.75744495899926,127,-0.8,0.7,0.888888888888889,0.791666666666667,0.0555555555555556,NA,0.902777777777778,1.70833333333333,0
33,1,237,2,1,"incongruent",2,0,1.73164108400033,125,-0.8,0.7,0.666666666666667,0.555555555555556,0.486111111111111,NA,0.680555555555556,1.25,0
33,1,238,3,1,"neutral",1,1,2.25285016700036,163,0.5,0.7,0.986111111111111,0.611111111111111,0.638888888888889,NA,1,1.625,0
33,1,239,1,1,"congruent",1,1,1.61897783299992,117,0.8,0.7,0.666666666666667,0.486111111111111,0.444444444444444,NA,0.680555555555556,1.18055555555556,0
33,1,240,2,1,"incongruent",1,1,2.52793620900047,182,-0.8,0.7,0.777777777777778,0.583333333333333,0.722222222222222,0.416666666666667,0.791666666666667,1.38888888888889,2.125
33,1,241,2,2,"congruent",2,1,1.74274800000057,126,0.8,0.7,0.638888888888889,0.555555555555556,0.527777777777778,NA,0.652777777777778,1.22222222222222,0
33,1,242,1,1,"congruent",1,1,2.17394041700027,157,0.8,0.7,0.763888888888889,0.5,0.638888888888889,0.25,0.777777777777778,1.29166666666667,1.94444444444444
33,1,245,2,2,"congruent",2,1,1.70956220800053,123,0.8,0.7,1,0.472222222222222,0.208333333333333,NA,1.01388888888889,1.5,0
33,1,246,1,1,"congruent",2,0,1.66338958399956,120,0.8,0.7,0.666666666666667,0.472222222222222,0.5,NA,0.680555555555556,1.16666666666667,0
33,1,247,3,2,"neutral",2,1,2.48002024999914,179,0.5,0.7,0.680555555555556,0.527777777777778,0.819444444444444,0.430555555555556,0.694444444444444,1.23611111111111,2.06944444444444
33,1,249,1,1,"congruent",1,1,2.57936558299934,186,0.8,0.7,0.75,0.486111111111111,0.638888888888889,0.680555555555556,0.763888888888889,1.26388888888889,1.91666666666667
33,1,250,1,2,"incongruent",2,1,3.39340979099961,240,-0.8,0.7,0.902777777777778,0.458333333333333,0.861111111111111,1.08333333333333,0.916666666666667,1.38888888888889,2.26388888888889
33,1,251,2,2,"congruent",2,1,2.98348329199962,215,0.8,0.7,0.680555555555556,0.444444444444444,0.986111111111111,0.847222222222222,0.694444444444444,1.15277777777778,2.15277777777778
33,1,252,3,2,"neutral",2,1,2.16371158299989,156,0.5,0.7,0.694444444444444,0.555555555555556,0.75,0.138888888888889,0.708333333333333,1.27777777777778,2.04166666666667
33,1,253,1,1,"congruent",2,0,1.69063287500012,122,0.8,0.7,0.805555555555556,0.555555555555556,0.305555555555556,NA,0.819444444444444,1.38888888888889,0
33,1,254,2,2,"congruent",2,1,2.93685320799977,212,0.8,0.7,0.680555555555556,0.430555555555556,0.819444444444444,0.986111111111111,0.694444444444444,1.13888888888889,1.97222222222222
33,1,255,3,1,"neutral",1,1,2.35436345800008,170,0.5,0.7,0.708333333333333,0.430555555555556,0.694444444444444,0.5,0.722222222222222,1.16666666666667,1.875
33,1,256,2,1,"incongruent",1,1,2.59211383299953,187,-0.8,0.7,0.916666666666667,0.569444444444444,0.75,0.333333333333333,0.930555555555556,1.51388888888889,2.27777777777778
33,1,257,2,2,"congruent",2,1,2.91329649999989,210,0.8,0.7,0.916666666666667,0.569444444444444,0.638888888888889,0.763888888888889,0.930555555555556,1.51388888888889,2.16666666666667
33,1,258,1,1,"congruent",2,0,1.88683166600003,136,0.8,0.7,0.652777777777778,0.583333333333333,0.625,NA,0.666666666666667,1.26388888888889,0
33,1,259,2,2,"congruent",2,1,3.68263237500014,240,0.8,0.7,1.02777777777778,0.611111111111111,0.75,0.916666666666667,1.04166666666667,1.66666666666667,2.43055555555556
33,1,260,2,1,"incongruent",1,1,2.14095662499949,154,-0.8,0.7,0.666666666666667,1.04166666666667,0.402777777777778,NA,0.680555555555556,1.73611111111111,0
33,1,261,1,2,"incongruent",2,1,2.26988516700021,163,-0.8,0.7,0.861111111111111,0.486111111111111,0.722222222222222,0.166666666666667,0.875,1.375,2.11111111111111
33,1,262,2,2,"congruent",2,1,1.97950041700005,143,0.8,0.7,0.666666666666667,0.472222222222222,0.652777777777778,0.166666666666667,0.680555555555556,1.16666666666667,1.83333333333333
33,1,263,1,2,"incongruent",2,1,1.67699995899966,121,-0.8,0.7,0.652777777777778,0.458333333333333,0.541666666666667,NA,0.666666666666667,1.13888888888889,0
33,1,264,1,2,"incongruent",2,1,2.26025866600048,163,-0.8,0.7,0.805555555555556,0.541666666666667,0.847222222222222,0.0416666666666667,0.819444444444444,1.375,2.23611111111111
33,1,265,2,2,"congruent",2,1,2.04228250000051,147,0.8,0.7,0.638888888888889,0.513888888888889,0.763888888888889,0.0972222222222222,0.652777777777778,1.18055555555556,1.95833333333333
33,1,266,1,1,"congruent",1,1,2.42626974999985,175,0.8,0.7,0.638888888888889,0.541666666666667,0.847222222222222,0.375,0.652777777777778,1.20833333333333,2.06944444444444
33,1,267,3,2,"neutral",2,1,1.81663870899956,131,0.5,0.7,0.791666666666667,0.5,0.5,NA,0.805555555555556,1.31944444444444,0
33,1,268,1,1,"congruent",1,1,1.75870454200049,127,0.8,0.7,0.833333333333333,0.430555555555556,0.472222222222222,NA,0.847222222222222,1.29166666666667,0
33,1,269,2,2,"congruent",2,1,2.23161683299986,161,0.8,0.7,0.791666666666667,0.569444444444444,0.819444444444444,0.0277777777777778,0.805555555555556,1.38888888888889,2.22222222222222
33,1,270,2,2,"congruent",2,1,2.33668074999969,168,0.8,0.7,0.736111111111111,0.444444444444444,0.708333333333333,0.416666666666667,0.75,1.20833333333333,1.93055555555556
33,1,272,3,2,"neutral",2,1,1.84096283300005,133,0.5,0.7,0.680555555555556,0.458333333333333,0.680555555555556,NA,0.694444444444444,1.16666666666667,0
33,1,273,2,1,"incongruent",1,1,2.09614583300026,151,-0.8,0.7,0.791666666666667,0.5,0.638888888888889,0.138888888888889,0.805555555555556,1.31944444444444,1.97222222222222
33,1,274,3,2,"neutral",2,1,2.16193987499992,156,0.5,0.7,1.13888888888889,0.472222222222222,0.527777777777778,NA,1.15277777777778,1.63888888888889,0
33,1,275,2,1,"incongruent",1,1,1.59944875000019,115,-0.8,0.7,0.680555555555556,0.513888888888889,0.375,NA,0.694444444444444,1.22222222222222,0
33,1,276,3,2,"neutral",1,0,2.63457933399968,190,0.5,0.7,0.791666666666667,0.458333333333333,0.736111111111111,0.625,0.805555555555556,1.27777777777778,2.02777777777778
35,1,1,2,2,"congruent",2,1,1.20438966700021,87,0.8,0.7,0.680555555555556,0.430555555555556,0.0694444444444444,NA,0.694444444444444,1.13888888888889,0
35,1,2,2,1,"incongruent",2,0,1.10928637499819,80,-0.8,0.7,0.638888888888889,0.472222222222222,NA,NA,0.652777777777778,0,0
35,1,3,2,2,"congruent",2,1,1.17482200000086,85,0.8,0.7,0.763888888888889,0.416666666666667,NA,NA,0.777777777777778,0,0
35,1,4,1,2,"incongruent",2,1,1.18729604100008,85,-0.8,0.7,0.680555555555556,0.458333333333333,0.0138888888888889,NA,0.694444444444444,1.16666666666667,0
35,1,5,3,1,"neutral",1,1,1.331600583002,96,0.5,0.7,0.708333333333333,0.541666666666667,0.0555555555555556,NA,0.722222222222222,1.27777777777778,0
35,1,6,2,1,"incongruent",1,1,1.35840541699872,98,-0.8,0.7,0.708333333333333,0.652777777777778,NA,NA,0.722222222222222,0,0
35,1,7,1,1,"congruent",1,1,0.993389499999466,72,0.8,0.7,0.638888888888889,0.361111111111111,NA,NA,0.652777777777778,0,0
35,1,9,2,2,"congruent",2,1,1.26366520800002,91,0.8,0.7,0.666666666666667,0.597222222222222,NA,NA,0.680555555555556,0,0
35,1,10,2,2,"congruent",1,0,1.52538941699822,110,0.8,0.7,0.791666666666667,0.597222222222222,0.111111111111111,NA,0.805555555555556,1.41666666666667,0
35,1,11,1,1,"congruent",1,1,0.877555874998507,64,0.8,0.7,0.75,0.138888888888889,NA,NA,0.763888888888889,0,0
35,1,12,3,2,"neutral",2,1,1.05815237499701,77,0.5,0.7,0.638888888888889,0.430555555555556,NA,NA,0.652777777777778,0,0
35,1,13,3,2,"neutral",2,1,1.25284162500247,90,0.5,0.7,0.652777777777778,0.597222222222222,NA,NA,0.666666666666667,0,0
35,1,14,2,2,"congruent",2,1,1.09612795800058,79,0.8,0.7,0.666666666666667,0.430555555555556,NA,NA,0.680555555555556,0,0
35,1,15,2,2,"congruent",1,0,1.20855862499957,87,0.8,0.7,0.861111111111111,0.347222222222222,NA,NA,0.875,0,0
35,1,16,3,1,"neutral",1,1,1.38284262500019,100,0.5,0.7,0.694444444444444,0.513888888888889,0.152777777777778,NA,0.708333333333333,1.23611111111111,0
35,1,17,1,1,"congruent",1,1,1.22893079200003,89,0.8,0.7,0.722222222222222,0.430555555555556,0.0555555555555556,NA,0.736111111111111,1.18055555555556,0
35,1,18,1,2,"incongruent",1,0,1.27310033399772,92,-0.8,0.7,0.680555555555556,0.597222222222222,NA,NA,0.694444444444444,0,0
35,1,19,1,1,"congruent",1,1,0.930438208000851,67,0.8,0.7,0.805555555555556,0.125,NA,NA,0.819444444444444,0,0
35,1,20,1,2,"incongruent",1,0,1.22478658299951,88,-0.8,0.7,0.888888888888889,0.333333333333333,NA,NA,0.902777777777778,0,0
35,1,21,2,2,"congruent",2,1,1.16667791700092,84,0.8,0.7,0.708333333333333,0.458333333333333,NA,NA,0.722222222222222,0,0
35,1,22,3,1,"neutral",2,0,1.10678095799813,80,0.5,0.7,1.11111111111111,NA,NA,NA,0,0,0
35,1,23,2,2,"congruent",2,1,1.58089708300031,114,0.8,0.7,0.944444444444444,0.472222222222222,0.138888888888889,NA,0.958333333333333,1.44444444444444,0
35,1,24,3,2,"neutral",2,1,1.44244225000148,104,0.5,0.7,0.638888888888889,0.444444444444444,0.333333333333333,NA,0.652777777777778,1.11111111111111,0
35,1,25,1,1,"congruent",1,1,0.900607499999751,65,0.8,0.7,0.902777777777778,NA,NA,NA,0,0,0
35,1,26,1,2,"incongruent",1,0,1.42508850000013,103,-0.8,0.7,0.722222222222222,0.513888888888889,0.166666666666667,NA,0.736111111111111,1.26388888888889,0
35,1,27,1,1,"congruent",1,1,1.14810358400064,83,0.8,0.7,0.708333333333333,0.444444444444444,NA,NA,0.722222222222222,0,0
35,1,29,2,2,"congruent",2,1,1.10979116599992,80,0.8,0.7,0.680555555555556,0.430555555555556,NA,NA,0.694444444444444,0,0
35,1,30,3,1,"neutral",2,0,1.21536454099987,88,0.5,0.7,1,0.222222222222222,NA,NA,1.01388888888889,0,0
35,1,31,2,2,"congruent",2,1,1.17483208299745,85,0.8,0.7,0.625,0.472222222222222,0.0555555555555556,NA,0.638888888888889,1.125,0
35,1,32,3,2,"neutral",2,1,1.26933712500249,92,0.5,0.7,0.666666666666667,0.611111111111111,NA,NA,0.680555555555556,0,0
35,1,33,3,2,"neutral",2,1,1.37283237500014,99,0.5,0.7,1.18055555555556,0.194444444444444,NA,NA,1.19444444444444,0,0
35,1,34,1,2,"incongruent",1,0,1.08375458400042,78,-0.8,0.7,0.763888888888889,0.319444444444444,NA,NA,0.777777777777778,0,0
35,1,35,2,2,"congruent",2,1,1.3159131249995,95,0.8,0.7,0.666666666666667,0.486111111111111,0.138888888888889,NA,0.680555555555556,1.18055555555556,0
35,1,36,2,2,"congruent",2,1,1.20686624999871,87,0.8,0.7,0.666666666666667,0.541666666666667,NA,NA,0.680555555555556,0,0
35,1,37,1,2,"incongruent",1,0,1.08302062499934,78,-0.8,0.7,0.708333333333333,0.375,NA,NA,0.722222222222222,0,0
35,1,38,2,2,"congruent",2,1,1.09751462500208,79,0.8,0.7,0.638888888888889,0.458333333333333,NA,NA,0.652777777777778,0,0
35,1,39,1,1,"congruent",1,1,1.23647404199801,89,0.8,0.7,0.652777777777778,0.486111111111111,0.0694444444444444,NA,0.666666666666667,1.16666666666667,0
35,1,40,2,2,"congruent",2,1,1.21834308399775,88,0.8,0.7,0.680555555555556,0.541666666666667,NA,NA,0.694444444444444,0,0
35,1,41,2,1,"incongruent",1,1,1.29939916699732,94,-0.8,0.7,0.944444444444444,0.361111111111111,NA,NA,0.958333333333333,0,0
35,1,43,2,2,"congruent",2,1,1.02786041699801,74,0.8,0.7,0.652777777777778,0.375,NA,NA,0.666666666666667,0,0
35,1,44,1,1,"congruent",1,1,1.1204185830029,81,0.8,0.7,0.638888888888889,0.458333333333333,0,NA,0.652777777777778,1.125,0
35,1,45,3,1,"neutral",2,0,1.12882070900014,81,0.5,0.7,0.75,0.375,NA,NA,0.763888888888889,0,0
35,1,46,1,1,"congruent",1,1,1.20862037500046,87,0.8,0.7,0.861111111111111,0.347222222222222,NA,NA,0.875,0,0
35,1,47,2,2,"congruent",2,1,1.1085707500024,80,0.8,0.7,0.694444444444444,0.416666666666667,NA,NA,0.708333333333333,0,0
35,1,48,3,2,"neutral",2,1,1.12266216699936,81,0.5,0.7,0.680555555555556,0.444444444444444,NA,NA,0.694444444444444,0,0
35,1,49,3,1,"neutral",1,1,1.30501641699811,94,0.5,0.7,0.652777777777778,0.472222222222222,0.152777777777778,NA,0.666666666666667,1.15277777777778,0
35,1,50,1,2,"incongruent",1,0,1.17511633300091,85,-0.8,0.7,0.708333333333333,0.472222222222222,NA,NA,0.722222222222222,0,0
35,1,51,2,2,"congruent",2,1,0.881330166997941,64,0.8,0.7,0.680555555555556,0.208333333333333,NA,NA,0.694444444444444,0,0
35,1,52,2,2,"congruent",1,0,1.02751433400044,74,0.8,0.7,0.861111111111111,0.166666666666667,NA,NA,0.875,0,0
35,1,53,1,1,"congruent",1,1,0.953005666997342,69,0.8,0.7,0.805555555555556,0.152777777777778,NA,NA,0.819444444444444,0,0
35,1,54,1,1,"congruent",1,1,1.00101366699892,72,0.8,0.7,0.958333333333333,0.0416666666666667,NA,NA,0.972222222222222,0,0
35,1,56,1,1,"congruent",1,1,1.03653429099722,75,0.8,0.7,0.638888888888889,0.402777777777778,NA,NA,0.652777777777778,0,0
35,1,57,2,2,"congruent",2,1,0.958622042002389,69,0.8,0.7,0.666666666666667,0.291666666666667,NA,NA,0.680555555555556,0,0
35,1,58,3,2,"neutral",2,1,1.16364595800042,84,0.5,0.7,0.708333333333333,0.458333333333333,NA,NA,0.722222222222222,0,0
35,1,60,2,2,"congruent",1,0,1.27738574999967,92,0.8,0.7,0.777777777777778,0.430555555555556,0.0416666666666667,NA,0.791666666666667,1.23611111111111,0
35,1,61,1,1,"congruent",1,1,0.939984042001015,68,0.8,0.7,0.666666666666667,0.277777777777778,NA,NA,0.680555555555556,0,0
35,1,62,3,1,"neutral",2,0,0.9218294170023,67,0.5,0.7,0.75,0.180555555555556,NA,NA,0.763888888888889,0,0
35,1,63,1,2,"incongruent",1,0,1.04225429199869,75,-0.8,0.7,0.736111111111111,0.305555555555556,NA,NA,0.75,0,0
35,1,65,1,1,"congruent",1,1,0.97061974999815,70,0.8,0.7,0.666666666666667,0.305555555555556,NA,NA,0.680555555555556,0,0
35,1,66,2,2,"congruent",2,1,1.13083062499936,82,0.8,0.7,0.694444444444444,0.444444444444444,NA,NA,0.708333333333333,0,0
35,1,67,1,1,"congruent",1,1,0.761395334000554,55,0.8,0.7,0.652777777777778,0.111111111111111,NA,NA,0.666666666666667,0,0
35,1,68,1,1,"congruent",1,1,0.815393542001402,59,0.8,0.7,0.819444444444444,NA,NA,NA,0,0,0
35,1,69,1,1,"congruent",1,1,1.03580666700145,75,0.8,0.7,0.75,0.291666666666667,NA,NA,0.763888888888889,0,0
35,1,70,1,1,"congruent",1,1,1.06918054199923,77,0.8,0.7,0.875,0.194444444444444,NA,NA,0.888888888888889,0,0
35,1,71,3,1,"neutral",2,0,1.0351699999992,75,0.5,0.7,0.652777777777778,0.388888888888889,NA,NA,0.666666666666667,0,0
35,1,72,3,1,"neutral",1,1,1.06105808400025,76,0.5,0.7,0.652777777777778,0.402777777777778,NA,NA,0.666666666666667,0,0
35,1,73,1,1,"congruent",1,1,0.970424791998084,70,0.8,0.7,0.708333333333333,0.263888888888889,NA,NA,0.722222222222222,0,0
35,1,74,2,1,"incongruent",1,1,1.14756120799939,83,-0.8,0.7,0.638888888888889,0.513888888888889,NA,NA,0.652777777777778,0,0
35,1,75,3,2,"neutral",1,0,1.31457799999771,95,0.5,0.7,0.916666666666667,0.402777777777778,NA,NA,0.930555555555556,0,0
35,1,76,2,2,"congruent",2,1,0.94265054099742,68,0.8,0.7,0.680555555555556,0.263888888888889,NA,NA,0.694444444444444,0,0
35,1,77,2,2,"congruent",1,0,1.03666320799675,75,0.8,0.7,0.652777777777778,0.388888888888889,NA,NA,0.666666666666667,0,0
35,1,78,2,2,"congruent",1,0,1.21931308399871,88,0.8,0.7,1.22222222222222,NA,NA,NA,0,0,0
35,1,79,1,2,"incongruent",2,1,1.47433629200168,107,-0.8,0.7,0.652777777777778,0.597222222222222,0.208333333333333,NA,0.666666666666667,1.27777777777778,0
35,1,80,2,2,"congruent",2,1,1.16355170799943,84,0.8,0.7,0.680555555555556,0.486111111111111,NA,NA,0.694444444444444,0,0
35,1,81,1,2,"incongruent",2,1,1.09302937500252,79,-0.8,0.7,0.666666666666667,0.430555555555556,NA,NA,0.680555555555556,0,0
35,1,82,1,1,"congruent",1,1,0.800376541999867,58,0.8,0.7,0.722222222222222,0.0833333333333333,NA,NA,0.736111111111111,0,0
35,1,85,3,2,"neutral",2,1,1.08351625000068,78,0.5,0.7,1.05555555555556,0.0277777777777778,NA,NA,1.06944444444444,0,0
35,1,86,1,1,"congruent",1,1,1.00763654199909,73,0.8,0.7,0.638888888888889,0.375,NA,NA,0.652777777777778,0,0
35,1,87,3,2,"neutral",2,1,0.762244959001691,55,0.5,0.7,0.666666666666667,0.0972222222222222,NA,NA,0.680555555555556,0,0
35,1,88,2,2,"congruent",2,1,1.20307329199932,87,0.8,0.7,0.722222222222222,0.458333333333333,0,NA,0.736111111111111,1.20833333333333,0
35,1,89,1,1,"congruent",1,1,1.05316441700052,76,0.8,0.7,0.638888888888889,0.416666666666667,NA,NA,0.652777777777778,0,0
35,1,90,1,1,"congruent",1,1,1.19376391600235,86,0.8,0.7,0.833333333333333,0.361111111111111,NA,NA,0.847222222222222,0,0
35,1,91,1,1,"congruent",1,1,0.759946166002919,55,0.8,0.7,0.763888888888889,NA,NA,NA,0,0,0
35,1,92,1,1,"congruent",2,0,1.09794316700209,79,0.8,0.7,0.944444444444444,0.152777777777778,NA,NA,0.958333333333333,0,0
35,1,94,2,2,"congruent",2,1,1.25811120800063,90,0.8,0.7,0.777777777777778,0.430555555555556,0.0138888888888889,NA,0.791666666666667,1.23611111111111,0
35,1,96,2,1,"incongruent",2,0,1.00071333300002,72,-0.8,0.7,0.791666666666667,0.208333333333333,NA,NA,0.805555555555556,0,0
35,1,97,3,1,"neutral",2,0,1.17976674999954,85,0.5,0.7,0.666666666666667,0.513888888888889,NA,NA,0.680555555555556,0,0
35,1,98,1,1,"congruent",1,1,1.02552199999991,74,0.8,0.7,0.680555555555556,0.347222222222222,NA,NA,0.694444444444444,0,0
35,1,99,1,1,"congruent",1,1,1.06467087499914,77,0.8,0.7,0.75,0.319444444444444,NA,NA,0.763888888888889,0,0
35,1,100,2,2,"congruent",2,1,0.972906499999226,70,0.8,0.7,0.652777777777778,0.319444444444444,NA,NA,0.666666666666667,0,0
35,1,101,1,1,"congruent",1,1,1.08377470799678,78,0.8,0.7,0.958333333333333,0.125,NA,NA,0.972222222222222,0,0
35,1,102,1,1,"congruent",1,1,0.969070041002851,70,0.8,0.7,0.75,0.222222222222222,NA,NA,0.763888888888889,0,0
35,1,103,1,1,"congruent",1,1,0.957975041997997,69,0.8,0.7,0.680555555555556,0.277777777777778,NA,NA,0.694444444444444,0,0
35,1,104,1,1,"congruent",1,1,1.01244487499935,73,0.8,0.7,0.680555555555556,0.333333333333333,NA,NA,0.694444444444444,0,0
35,1,105,2,2,"congruent",2,1,1.21995212500042,88,0.8,0.7,0.652777777777778,0.472222222222222,0.0694444444444444,NA,0.666666666666667,1.15277777777778,0
35,1,106,2,2,"congruent",2,1,1.14011174999905,82,0.8,0.7,0.791666666666667,0.347222222222222,NA,NA,0.805555555555556,0,0
35,1,107,2,1,"incongruent",1,1,1.12593774999914,81,-0.8,0.7,1.125,NA,NA,NA,0,0,0
35,1,108,1,1,"congruent",1,1,1.22169108399976,88,0.8,0.7,0.972222222222222,0.25,NA,NA,0.986111111111111,0,0
35,1,109,2,1,"incongruent",1,1,1.08176408299914,78,-0.8,0.7,0.708333333333333,0.375,NA,NA,0.722222222222222,0,0
35,1,110,1,1,"congruent",2,0,0.914614000001166,66,0.8,0.7,0.652777777777778,0.263888888888889,NA,NA,0.666666666666667,0,0
35,1,111,1,1,"congruent",1,1,1.11296083299749,80,0.8,0.7,0.722222222222222,0.388888888888889,NA,NA,0.736111111111111,0,0
35,1,112,1,1,"congruent",2,0,1.32853112500015,96,0.8,0.7,0.944444444444444,0.388888888888889,NA,NA,0.958333333333333,0,0
35,1,114,1,1,"congruent",1,1,1.1355192910014,82,0.8,0.7,0.652777777777778,0.486111111111111,NA,NA,0.666666666666667,0,0
35,1,116,1,1,"congruent",1,1,1.12465345799865,81,0.8,0.7,0.680555555555556,0.444444444444444,NA,NA,0.694444444444444,0,0
35,1,117,2,2,"congruent",2,1,1.49636345800172,108,0.8,0.7,0.722222222222222,0.611111111111111,0.138888888888889,NA,0.736111111111111,1.36111111111111,0
35,1,118,3,2,"neutral",2,1,1.24836904199765,90,0.5,0.7,0.638888888888889,0.486111111111111,0.0972222222222222,NA,0.652777777777778,1.15277777777778,0
35,1,119,2,2,"congruent",2,1,1.09332195800016,79,0.8,0.7,0.833333333333333,0.263888888888889,NA,NA,0.847222222222222,0,0
35,1,120,1,1,"congruent",1,1,1.36319304100107,98,0.8,0.7,1.01388888888889,0.347222222222222,NA,NA,1.02777777777778,0,0
35,1,121,2,2,"congruent",1,0,0.988354208999226,71,0.8,0.7,0.791666666666667,0.194444444444444,NA,NA,0.805555555555556,0,0
35,1,122,2,2,"congruent",2,1,1.4848461670008,107,0.8,0.7,0.694444444444444,0.513888888888889,0.25,NA,0.708333333333333,1.23611111111111,0
35,1,123,3,1,"neutral",2,0,1.13560775000224,82,0.5,0.7,0.680555555555556,0.458333333333333,NA,NA,0.694444444444444,0,0
35,1,124,1,2,"incongruent",2,1,1.37190112499957,99,-0.8,0.7,0.652777777777778,0.583333333333333,0.111111111111111,NA,0.666666666666667,1.26388888888889,0
35,1,125,1,1,"congruent",1,1,1.11087316600242,80,0.8,0.7,0.75,0.361111111111111,NA,NA,0.763888888888889,0,0
35,1,126,1,1,"congruent",1,1,1.3187954999994,95,0.8,0.7,1.02777777777778,0.291666666666667,NA,NA,1.04166666666667,0,0
35,1,127,3,1,"neutral",1,1,1.32580066599985,96,0.5,0.7,0.638888888888889,0.472222222222222,0.194444444444444,NA,0.652777777777778,1.13888888888889,0
35,1,128,2,2,"congruent",2,1,0.969509749997087,70,0.8,0.7,0.875,0.0972222222222222,NA,NA,0.888888888888889,0,0
35,1,129,3,2,"neutral",1,0,1.05634137500238,76,0.5,0.7,0.638888888888889,0.416666666666667,NA,NA,0.652777777777778,0,0
35,1,130,1,1,"congruent",2,0,1.08147645799909,78,0.8,0.7,0.763888888888889,0.319444444444444,NA,NA,0.777777777777778,0,0
35,1,131,1,1,"congruent",1,1,1.19968158399934,87,0.8,0.7,0.736111111111111,0.430555555555556,0.0138888888888889,NA,0.75,1.19444444444444,0
35,1,132,2,1,"incongruent",2,0,0.999355333999119,72,-0.8,0.7,0.708333333333333,0.291666666666667,NA,NA,0.722222222222222,0,0
35,1,133,2,2,"congruent",1,0,1.17606795899701,85,0.8,0.7,0.791666666666667,0.388888888888889,NA,NA,0.805555555555556,0,0
35,1,134,3,2,"neutral",1,0,1.39902520800024,101,0.5,0.7,0.722222222222222,0.597222222222222,0.0555555555555556,NA,0.736111111111111,1.34722222222222,0
35,1,135,3,1,"neutral",2,0,1.12216474999877,81,0.5,0.7,0.847222222222222,0.277777777777778,NA,NA,0.861111111111111,0,0
35,1,136,3,1,"neutral",2,0,0.957966124999075,69,0.5,0.7,0.958333333333333,NA,NA,NA,0,0,0
35,1,137,2,2,"congruent",2,1,1.12501504199827,81,0.8,0.7,0.708333333333333,0.416666666666667,NA,NA,0.722222222222222,0,0
35,1,138,2,1,"incongruent",1,1,1.10779312500017,80,-0.8,0.7,0.708333333333333,0.402777777777778,NA,NA,0.722222222222222,0,0
35,1,139,1,1,"congruent",1,1,1.12576062500011,81,0.8,0.7,0.666666666666667,0.458333333333333,NA,NA,0.680555555555556,0,0
35,1,140,2,2,"congruent",2,1,1.0822174169989,78,0.8,0.7,0.736111111111111,0.347222222222222,NA,NA,0.75,0,0
35,1,141,1,1,"congruent",1,1,1.11415074999968,80,0.8,0.7,0.694444444444444,0.416666666666667,NA,NA,0.708333333333333,0,0
35,1,143,2,2,"congruent",2,1,1.24909987499996,90,0.8,0.7,1.25,NA,NA,NA,0,0,0
35,1,144,3,2,"neutral",2,1,1.09490333300346,79,0.5,0.7,0.722222222222222,0.375,NA,NA,0.736111111111111,0,0
35,1,145,2,2,"congruent",2,1,1.05583124999976,76,0.8,0.7,0.638888888888889,0.416666666666667,NA,NA,0.652777777777778,0,0
35,1,146,2,2,"congruent",2,1,1.08001058400259,78,0.8,0.7,0.708333333333333,0.375,NA,NA,0.722222222222222,0,0
35,1,147,3,2,"neutral",2,1,1.12350675000198,80,0.5,0.7,0.666666666666667,0.444444444444444,NA,NA,0.680555555555556,0,0
35,1,149,2,2,"congruent",2,1,1.24598358299772,90,0.8,0.7,0.777777777777778,0.472222222222222,NA,NA,0.791666666666667,0,0
35,1,150,1,1,"congruent",1,1,1.38605308300248,100,0.8,0.7,0.722222222222222,0.458333333333333,0.180555555555556,NA,0.736111111111111,1.20833333333333,0
35,1,151,2,2,"congruent",2,1,1.30027850000261,94,0.8,0.7,0.694444444444444,0.527777777777778,0.0555555555555556,NA,0.708333333333333,1.25,0
35,1,152,1,1,"congruent",1,1,1.32756529100152,96,0.8,0.7,0.666666666666667,0.486111111111111,0.152777777777778,NA,0.680555555555556,1.18055555555556,0
35,1,153,2,2,"congruent",2,1,1.12453795799956,81,0.8,0.7,0.652777777777778,0.472222222222222,NA,NA,0.666666666666667,0,0
35,1,154,2,2,"congruent",2,1,1.12415300000066,81,0.8,0.7,0.791666666666667,0.333333333333333,NA,NA,0.805555555555556,0,0
35,1,155,2,1,"incongruent",2,0,1.31501658399793,95,-0.8,0.7,0.833333333333333,0.486111111111111,NA,NA,0.847222222222222,0,0
35,1,156,3,2,"neutral",1,0,0.760796250000567,55,0.5,0.7,0.680555555555556,0.0833333333333333,NA,NA,0.694444444444444,0,0
35,1,157,1,1,"congruent",1,1,1.1839810829988,85,0.8,0.7,0.819444444444444,0.361111111111111,NA,NA,0.833333333333333,0,0
35,1,158,3,1,"neutral",1,1,1.26518999999826,91,0.5,0.7,0.652777777777778,0.555555555555556,0.0277777777777778,NA,0.666666666666667,1.23611111111111,0
35,1,159,1,1,"congruent",1,1,1.10557437500029,80,0.8,0.7,0.694444444444444,0.416666666666667,NA,NA,0.708333333333333,0,0
35,1,161,3,1,"neutral",2,0,0.916382542000065,66,0.5,0.7,0.680555555555556,0.236111111111111,NA,NA,0.694444444444444,0,0
35,1,162,1,2,"incongruent",1,0,0.984806459000538,71,-0.8,0.7,0.652777777777778,0.333333333333333,NA,NA,0.666666666666667,0,0
35,1,163,1,1,"congruent",1,1,1.23257204199763,89,0.8,0.7,0.680555555555556,0.444444444444444,0.0833333333333333,NA,0.694444444444444,1.15277777777778,0
35,1,164,3,2,"neutral",2,1,1.2166939589988,88,0.5,0.7,0.75,0.472222222222222,NA,NA,0.763888888888889,0,0
35,1,165,1,1,"congruent",1,1,0.732763291001902,53,0.8,0.7,0.736111111111111,NA,NA,NA,0,0,0
35,1,166,1,2,"incongruent",1,0,1.25545808300012,90,-0.8,0.7,0.847222222222222,0.402777777777778,NA,NA,0.861111111111111,0,0
35,1,168,1,1,"congruent",1,1,1.01104750000013,73,0.8,0.7,0.694444444444444,0.319444444444444,NA,NA,0.708333333333333,0,0
35,1,169,2,2,"congruent",2,1,1.1759979999988,85,0.8,0.7,0.819444444444444,0.361111111111111,NA,NA,0.833333333333333,0,0
35,1,171,2,2,"congruent",2,1,1.18905958400137,86,0.8,0.7,0.666666666666667,0.527777777777778,NA,NA,0.680555555555556,0,0
35,1,172,2,1,"incongruent",2,0,1.4427856250004,103,-0.8,0.7,0.638888888888889,0.472222222222222,0.291666666666667,NA,0.652777777777778,1.13888888888889,0
35,1,173,2,2,"congruent",1,0,1.16453075000027,84,0.8,0.7,0.694444444444444,0.430555555555556,0.0138888888888889,NA,0.708333333333333,1.15277777777778,0
35,1,174,2,2,"congruent",1,0,1.32654970799922,96,0.8,0.7,0.666666666666667,0.569444444444444,0.0694444444444444,NA,0.680555555555556,1.26388888888889,0
35,1,175,1,1,"congruent",1,1,1.23228779200144,89,0.8,0.7,0.666666666666667,0.569444444444444,NA,NA,0.680555555555556,0,0
35,1,176,3,2,"neutral",2,1,1.51343966700006,109,0.5,0.7,0.847222222222222,0.444444444444444,0.194444444444444,NA,0.861111111111111,1.31944444444444,0
35,1,178,2,2,"congruent",2,1,1.34639529199922,96,0.8,0.7,0.638888888888889,0.444444444444444,0.222222222222222,NA,0.652777777777778,1.11111111111111,0
35,1,179,3,2,"neutral",1,0,1.49709304200223,108,0.5,0.7,0.902777777777778,0.597222222222222,NA,NA,0.916666666666667,0,0
35,1,180,2,2,"congruent",2,1,1.36988770799871,100,0.8,0.7,0.777777777777778,0.444444444444444,0.138888888888889,NA,0.791666666666667,1.25,0
35,1,182,3,2,"neutral",2,1,1.12959441600105,82,0.5,0.7,0.736111111111111,0.402777777777778,NA,NA,0.75,0,0
35,1,184,1,1,"congruent",1,1,1.36866345800081,99,0.8,0.7,0.652777777777778,0.569444444444444,0.125,NA,0.666666666666667,1.25,0
35,1,185,2,2,"congruent",2,1,1.24539470799937,90,0.8,0.7,0.736111111111111,0.513888888888889,NA,NA,0.75,0,0
35,1,186,3,1,"neutral",2,0,1.89024687499841,136,0.5,0.7,0.666666666666667,0.5,0.652777777777778,0.0416666666666667,0.680555555555556,1.19444444444444,1.86111111111111
35,1,187,1,1,"congruent",1,1,1.0800424170011,78,0.8,0.7,0.736111111111111,0.347222222222222,NA,NA,0.75,0,0
35,1,188,3,1,"neutral",2,0,1.20582483399994,87,0.5,0.7,0.791666666666667,0.416666666666667,NA,NA,0.805555555555556,0,0
35,1,189,3,2,"neutral",2,1,1.28406412500044,93,0.5,0.7,0.75,0.5,0.0138888888888889,NA,0.763888888888889,1.27777777777778,0
35,1,190,2,2,"congruent",2,1,1.18600816600156,86,0.8,0.7,0.680555555555556,0.513888888888889,NA,NA,0.694444444444444,0,0
35,1,192,2,1,"incongruent",1,1,1.28767479200178,93,-0.8,0.7,0.736111111111111,0.555555555555556,NA,NA,0.75,0,0
35,1,193,1,2,"incongruent",1,0,1.20395012500012,87,-0.8,0.7,0.888888888888889,0.319444444444444,NA,NA,0.902777777777778,0,0
35,1,194,1,1,"congruent",1,1,1.1357503750005,82,0.8,0.7,0.805555555555556,0.333333333333333,NA,NA,0.819444444444444,0,0
35,1,195,2,2,"congruent",1,0,1.06457858299837,77,0.8,0.7,0.638888888888889,0.430555555555556,NA,NA,0.652777777777778,0,0
35,1,196,2,1,"incongruent",1,1,1.28850662499826,93,-0.8,0.7,0.777777777777778,0.513888888888889,NA,NA,0.791666666666667,0,0
35,1,197,2,2,"congruent",1,0,1.14164229100061,82,0.8,0.7,0.666666666666667,0.444444444444444,0,NA,0.680555555555556,1.13888888888889,0
35,1,198,2,2,"congruent",2,1,1.23699299999862,89,0.8,0.7,0.888888888888889,0.347222222222222,NA,NA,0.902777777777778,0,0
35,1,199,3,2,"neutral",2,1,1.14588629100035,83,0.5,0.7,0.763888888888889,0.388888888888889,NA,NA,0.777777777777778,0,0
35,1,200,1,2,"incongruent",1,0,1.46792220800126,106,-0.8,0.7,1.01388888888889,0.458333333333333,NA,NA,1.02777777777778,0,0
35,1,201,3,2,"neutral",2,1,1.11204391700085,80,0.5,0.7,0.722222222222222,0.388888888888889,NA,NA,0.736111111111111,0,0
35,1,202,1,1,"congruent",1,1,1.35701812499974,98,0.8,0.7,1,0.361111111111111,NA,NA,1.01388888888889,0,0
35,1,203,1,1,"congruent",1,1,1.24240008399647,90,0.8,0.7,0.958333333333333,0.291666666666667,NA,NA,0.972222222222222,0,0
35,1,204,2,2,"congruent",2,1,1.20555487499951,87,0.8,0.7,0.736111111111111,0.472222222222222,NA,NA,0.75,0,0
35,1,205,3,2,"neutral",2,1,1.02067629100202,74,0.5,0.7,0.638888888888889,0.388888888888889,NA,NA,0.652777777777778,0,0
35,1,206,1,1,"congruent",1,1,1.13632583300205,82,0.8,0.7,0.694444444444444,0.444444444444444,NA,NA,0.708333333333333,0,0
