"subID","block","trial","cueName","targetName","cueIdx","targetIdx","response","accuracy","RT","confidence","confRT","flickerDuration","coherence","catch_trial","cueConfidence","imgIdx_subjective","subjectiveCue","subjectiveCongCue","trueCue","congCue","noise1_duration","signal1_onset","noise2_onset","noise2_duration","signal2_onset","signal2_duration","zlogRT"
32,1,1,"purple","S4-20.jpg",2,2,2,1,2.82201445799728,3,2.53674754199164,2.82660000000033,0.663787019121311,0,3,2,0.85,0.85,0.8,0.8,0.630158568290655,0.643857667601321,1.17812254071731,0.712353164154653,1.90417480418263,0.931538753125316,1.61102456449579
32,1,2,"orange","S3-12.jpg",1,1,1,1,2.31936945900088,2,2.66900362499291,2.32150466699386,0.721212063860231,0,NA,1,0.75,0.75,0.8,0.8,0.664614640298498,0.678178204386222,1.24784789607065,1.07152156293023,NA,NA,0.923178699539315
32,1,3,"purple","S4-20.jpg",2,2,2,1,1.91376108299301,4,0.877242542002932,1.91696445799607,0.663787019121311,0,3,2,0.85,0.85,0.8,0.8,0.687757889200613,0.702709147661496,1.30075948609681,0.613001596896198,NA,NA,0.249116388421155
32,1,4,"green","S4-20.jpg",3,2,2,1,2.61440266700811,2,2.22867966600461,2.6164996669977,0.663787019121311,0,2,2,0.71,0.71,0.5,0.5,0.657172255094935,0.671458608466564,1.12862191635869,0.685744961838193,1.82865323156851,0.800035788811225,1.34306399676804
32,1,5,"purple","S4-20.jpg",2,2,2,1,1.63403787500283,3,1.03814791599871,1.6385492499976,0.663787019121311,0,3,2,0.85,0.85,0.8,0.8,0.673682281799412,0.688015947369613,1.17536057675642,0.458677298246408,NA,NA,-0.304988822990817
32,1,6,"purple","S4-20.jpg",2,2,2,1,1.58594058400195,4,0.922649625004851,1.58860191699932,0.663787019121311,0,3,2,0.85,0.85,0.8,0.8,0.728675403460355,0.742963156469382,1.28589777081239,0.300042813189558,NA,NA,-0.409754817340462
32,1,7,"orange","S3-12.jpg",1,1,1,1,1.62181850000343,2,1.1637361250032,1.62435120900045,0.721212063860231,0,NA,1,0.75,0.75,0.8,0.8,0.643134922415153,0.6571161163807,1.16043909914039,0.461379400863045,NA,NA,-0.331310052989416
32,1,8,"purple","S4-20.jpg",2,2,1,0,2.03935541700048,2,0.603591374994721,2.04151170799742,0.663787019121311,0,3,2,0.85,0.85,0.8,0.8,0.74915096951038,0.763024135612424,1.27633128138806,0.763024135612424,NA,NA,0.472009685999561
32,1,9,"purple","S3-12.jpg",2,1,2,0,1.56503741700726,4,1.25644391600508,1.56708400000934,0.721212063860231,1,3,2,0.85,0.85,0.8,0.2,0.734044098242343,0.747893986888425,1.21879020085521,0.346247216152049,NA,NA,-0.456280577406391
32,1,10,"orange","S3-12.jpg",1,1,1,1,2.31486008300271,2,1.21554587499122,2.31692175001081,0.721212063860231,0,NA,1,0.75,0.75,0.8,0.8,0.637626130647453,0.651487568270224,1.1366378850672,0.665349005892995,1.81584832858296,0.512873192042517,0.916354378783795
32,1,11,"orange","S3-12.jpg",1,1,1,1,2.3588689169992,3,0.535503166000126,2.36119554199104,0.721212063860231,0,NA,1,0.75,0.75,0.8,0.8,0.98517466533496,0.99905036484672,1.60958114336416,0.67990927607624,2.30336611895216,0.0693784975588,0.982394757964971
32,1,12,"green","S3-12.jpg",3,1,2,0,1.62147333301255,2,1.27744712500134,1.62329675001092,0.721212063860231,0,2,2,0.71,0.71,0.5,0.5,0.665219828928226,0.67907857536423,1.33043965785645,0.291033675156099,NA,NA,-0.33205643921555
32,1,13,"orange","S3-12.jpg",1,1,1,1,2.6442439169914,3,1.02615749998949,2.64662837499054,0.721212063860231,0,NA,1,0.75,0.75,0.8,0.8,0.664522031495221,0.678366240484705,1.12138092814819,0.650677822505737,1.78590295964341,0.872185166337477,1.38286262241667
32,1,14,"green","S3-12.jpg",3,1,2,0,1.46832329100289,4,1.23475416700239,1.47019883300527,0.721212063860231,0,2,2,0.71,0.71,0.5,0.5,0.914239030247082,0.928091136765978,NA,NA,NA,NA,-0.679963829280253
32,1,15,"orange","S3-12.jpg",1,1,1,1,1.61250637499325,3,0.572394707996864,1.61481287499191,0.721212063860231,0,NA,1,0.75,0.75,0.8,0.8,0.695045851290194,0.708946768315998,1.19547886421913,0.417027510774116,NA,NA,-0.351502397314947
32,1,16,"orange","S3-12.jpg",1,1,1,1,1.61915779100673,3,1.17145033300039,1.6212202910101,0.721212063860231,0,NA,1,0.75,0.75,0.8,0.8,0.740970514528504,0.754692190723476,1.22122918135253,0.397928609654196,NA,NA,-0.337067659865726
32,1,17,"purple","S3-12.jpg",2,1,2,0,1.42336270899978,2,0.585778667009436,1.42573333400651,0.721212063860231,0,3,2,0.85,0.85,0.8,0.2,0.753544963588119,0.767499499950862,1.22799919992138,0.195363509078401,NA,NA,-0.789016468090162
32,1,18,"orange","S4-20.jpg",1,2,2,1,1.63320075000229,1,0.459909291006625,1.63551208299759,0.663787019121311,0,NA,1,0.75,0.75,0.8,0.2,0.844281743645252,0.858122427967305,NA,NA,NA,NA,-0.306785747588966
32,1,19,"green","S4-20.jpg",3,2,2,1,1.39818404198741,4,0.449643791012932,1.40029112499906,0.663787019121311,0,2,2,0.71,0.71,0.5,0.5,0.678326911459239,0.69217031781555,1.16284613393012,0.235337908057287,NA,NA,-0.851602497348394
32,1,20,"purple","S4-20.jpg",2,2,2,1,1.57553420800832,4,0.318446457997197,1.57793191600649,0.663787019121311,1,3,2,0.85,0.85,0.8,0.8,0.829228530530695,0.84304900603954,1.34058612435796,0.234948083650364,NA,NA,-0.432839916547476
32,1,21,"purple","S4-20.jpg",2,2,2,1,2.6685803750006,3,0.321773374991608,2.67061041700072,0.663787019121311,0,3,2,0.85,0.85,0.8,0.8,0.875627935547072,0.889526791666867,1.79295243945353,0.681043949869945,2.48789524544327,0.194583985677127,1.41498852525021
32,1,22,"orange","S3-12.jpg",1,1,1,1,2.14954749999742,3,1.12374295800691,2.15135741699487,0.721212063860231,1,NA,1,0.75,0.75,0.8,0.8,0.651798274192766,0.665666322579846,1.26199240322429,0.873687048386048,2.14954749999742,0.0138680483870801,0.656541261728924
32,1,23,"purple","S4-20.jpg",2,2,2,1,1.52359904200421,4,0.286159416995361,1.52567899999849,0.663787019121311,0,3,2,0.85,0.85,0.8,0.8,0.803352222147674,0.817203122529531,1.32968643665822,0.19391260534599,NA,NA,-0.550379005580625
32,1,24,"green","S3-12.jpg",3,1,2,0,1.56640654199873,4,0.464154417000827,1.56875995900191,0.721212063860231,0,2,2,0.71,0.71,0.5,0.5,0.6515142254331,0.665376230229549,1.10896038371591,0.457446158282815,NA,NA,-0.453214247572783
32,1,25,"green","S3-12.jpg",3,1,1,1,2.53754366700014,2,0.552252084002248,2.53937374999805,0.721212063860231,0,2,2,0.71,0.71,0.5,0.5,0.693317941803317,0.707184300639383,1.34503680709843,0.637852506459052,1.99675567239355,0.554654353442654,1.23842923066724
32,1,26,"purple","S4-20.jpg",2,2,2,1,1.59308329199848,4,1.30262220800796,1.59541345899925,0.663787019121311,0,3,2,0.85,0.85,0.8,0.8,0.637233316799392,0.651086214990683,1.21905504083362,0.374028251164861,NA,NA,-0.393997211830516
32,1,27,"orange","S3-12.jpg",1,1,1,1,2.09779329199228,2,0.877946708002128,2.09962745899975,0.721212063860231,0,NA,1,0.75,0.75,0.8,0.8,0.722418882010586,0.736311552818482,1.3614817391738,0.666848198779003,2.0422226087607,0.0694633540394795,0.571079775637101
32,1,28,"orange","S3-12.jpg",1,1,1,1,1.8010725829954,2,1.14174337500299,1.80323387499084,0.721212063860231,1,NA,1,0.75,0.75,0.8,0.8,0.692720224229,0.70657462871358,1.14991557222014,0.65115701077526,NA,NA,0.0363054841184536
32,1,29,"purple","S4-20.jpg",2,2,2,1,2.72886912499962,3,0.760344165988499,2.73093104199506,0.663787019121311,0,3,2,0.85,0.85,0.8,0.8,0.761867014593802,0.775719142131872,1.21898722335008,0.914240417512563,2.14707976840072,0.595641484136973,1.49332898955915
32,1,30,"purple","S4-20.jpg",2,2,2,1,2.34539637500711,4,0.435465999995358,2.34763912500057,0.663787019121311,1,3,2,0.85,0.85,0.8,0.8,0.777172763315965,0.791050848375179,1.29066191050687,0.957587869085743,2.26212786465183,0.0971465954144957,0.962309412097997
32,1,31,"orange","S4-20.jpg",1,2,1,0,1.85945833299775,2,0.625479374997667,1.86180774999957,0.663787019121311,0,NA,1,0.75,0.75,0.8,0.2,0.749333955088646,0.763210509812509,1.20726026097615,0.652198072021599,NA,NA,0.148177123893055
32,1,32,"orange","S4-20.jpg",1,2,2,1,2.16209658399748,2,0.698962958005723,2.16429979199893,0.663787019121311,0,NA,1,0.75,0.75,0.8,0.2,0.679120080871003,0.692979674358167,1.13648666594739,0.720698861332493,1.87104512076705,0.304911056717593,0.676953505005722
32,1,33,"orange","S3-12.jpg",1,1,1,1,2.41469029198925,2,0.846643958007917,2.41652341699228,0.721212063860231,0,NA,1,0.75,0.75,0.8,0.8,0.707754051100297,0.721631581514029,1.16571255475343,0.818774294410148,1.99836437957731,0.430203442825671,1.06441072313148
32,1,34,"green","S4-20.jpg",3,2,2,1,1.83024533299613,3,1.60530408399063,1.83262504199229,0.663787019121311,1,2,2,0.71,0.71,0.5,0.5,0.637812767559257,0.651678262506198,1.16470157554299,0.665543757453138,NA,NA,0.0926488552315445
32,1,35,"green","S3-12.jpg",3,1,1,1,2.24394770900835,2,1.00895575000322,2.24594933399931,0.721212063860231,0,2,2,0.71,0.71,0.5,0.5,0.664873395261733,0.678724924329686,1.20508302891189,0.734131040601497,1.95306559858134,0.304733639494961,0.807254024607522
32,1,36,"orange","S4-20.jpg",1,2,1,0,2.43475070899876,4,0.546285916003399,2.43707841700234,0.663787019121311,0,NA,1,0.75,0.75,0.8,0.2,0.677856731482609,0.691690542329193,1.24504297619255,0.691690542329193,1.95056732936832,0.498017190477019,1.09342228703799
32,1,37,"orange","S3-12.jpg",1,1,1,1,1.45803145799437,4,0.299680875003105,1.4604090419889,0.721212063860231,0,NA,1,0.75,0.75,0.8,0.8,1.12476712473851,1.13865313862417,NA,NA,NA,NA,-0.704629216375419
32,1,38,"orange","S3-12.jpg",1,1,2,0,2.1412269170105,1,0.509935584006598,2.14356179200695,0.721212063860231,0,NA,1,0.75,0.75,0.8,0.8,0.848148324270393,0.862052395160071,1.3625989471885,0.667395402704571,2.04389842078275,0.111232567117429,0.642941258703128
32,1,39,"orange","S4-20.jpg",1,2,1,0,2.38953329199285,3,0.681746207992546,2.3918611669942,0.663787019121311,1,NA,1,0.75,0.75,0.8,0.2,0.819665489695222,0.833558125113785,1.44483408353056,0.736309677183843,2.19503639613297,0.208389531278446,1.02768587613695
32,1,40,"orange","S3-12.jpg",1,1,1,1,2.54764658299973,3,0.730176083001425,2.54997249999724,0.721212063860231,1,NA,1,0.75,0.75,0.8,0.8,0.723921433420688,0.737842999448009,1.1972546783496,0.640392037256763,1.85156828163368,0.709999867393367,1.25236273941332
32,1,41,"purple","S4-20.jpg",2,2,2,1,2.09247462499479,4,1.35082820800017,2.09480258300027,0.663787019121311,0,3,2,0.85,0.85,0.8,0.8,1.01159369287828,1.02545114072592,1.67675118956536,0.415723435429428,NA,NA,0.562177897839465
32,1,42,"orange","S3-12.jpg",1,1,1,1,2.21633737500815,3,1.21181708300719,2.2182055000012,0.721212063860231,0,NA,1,0.75,0.75,0.8,0.8,0.73416175547145,0.748013864065251,1.26054188203589,0.664901212502445,1.93929520313213,0.29089428046982,0.763839507342765
32,1,43,"orange","S3-12.jpg",1,1,2,0,2.07896741700824,2,0.317726749999565,2.0814180419984,0.721212063860231,0,NA,1,0.75,0.75,0.8,0.8,0.706848921782802,0.720708704562857,1.45527719190577,0.623690225102472,NA,NA,0.539468726977542
32,1,44,"green","S4-20.jpg",3,2,2,1,2.20473845799279,4,0.403682916992693,2.20683058300347,0.663787019121311,0,2,2,0.71,0.71,0.5,0.5,0.776511658160983,0.790377937771,1.45595935905184,0.73491281933093,2.20473845799279,0.0138662796100175,0.745439802340216
32,1,45,"purple","S4-20.jpg",2,2,2,1,1.7174339589983,4,0.255353874992579,1.71982179199404,0.663787019121311,0,3,2,0.85,0.85,0.8,0.8,0.761765062458924,0.775615336321813,1.34347656470028,0.373957394298017,NA,NA,-0.130438711282459
32,1,46,"green","S4-20.jpg",3,2,2,1,1.12151916700532,4,0.216750500010676,1.12357837500167,0.663787019121311,1,2,2,0.71,0.71,0.5,0.5,0.816909022880418,0.830754938522459,NA,NA,NA,NA,-1.62478055024672
32,1,47,"green","S4-20.jpg",3,2,2,1,1.21605324999837,4,0.0749416659964481,1.21813983398897,0.663787019121311,0,2,2,0.71,0.71,0.5,0.5,0.936500778734377,0.950478402297577,NA,NA,NA,NA,-1.34100128677375
32,1,48,"green","S3-12.jpg",3,1,1,1,1.40286924999964,2,0.2505154160026,1.40529549999337,0.721212063860231,0,2,2,0.71,0.71,0.5,0.5,0.694489727722594,0.708379522277046,1.16674274257396,0.236126507425682,NA,NA,-0.839871679335723
32,1,49,"purple","S4-20.jpg",2,2,2,1,1.66516262499499,4,0.00121970899635926,1.66728466699715,0.663787019121311,1,3,2,0.85,0.85,0.8,0.8,0.688083729336773,0.701845403923508,1.22478903821946,0.440373586775535,NA,NA,-0.238823500493499
32,1,50,"orange","S3-12.jpg",1,1,2,0,1.95944941700145,3,0.425493624992669,1.96174549999705,0.721212063860231,0,NA,1,0.75,0.75,0.8,0.8,0.680943414418944,0.69484021879484,1.23681558945482,0.667046610043047,1.91775900387376,0.0555872175035872,0.33184862264965
32,1,51,"purple","S4-20.jpg",2,2,2,1,2.27871408300416,4,0.0724578749941429,2.28079270799935,0.663787019121311,0,3,2,0.85,0.85,0.8,0.8,0.805886687891715,0.819781285958814,1.55619498351504,0.722519099489124,NA,NA,0.861167114996724
32,1,52,"orange","S3-12.jpg",1,1,1,1,1.33175608300371,2,0.294519875009428,1.33415804200922,0.721212063860231,0,NA,1,0.75,0.75,0.8,0.8,0.67975050069981,0.693622959897766,1.24852132781598,0.0832347551877319,NA,NA,-1.02229085945201
32,1,53,"orange","S4-20.jpg",1,2,2,1,2.27846066698839,3,0.312698583002202,2.2811460840021,0.663787019121311,0,NA,1,0.75,0.75,0.8,0.2,0.73633180091698,0.75022485376447,1.31984002051157,0.652973483832039,1.9867065571911,0.305647162644784,0.86077712024436
32,1,54,"purple","S3-12.jpg",2,1,2,0,1.24774729199999,4,0.287575832990115,1.24930937499448,0.721212063860231,0,3,2,0.85,0.85,0.8,0.2,0.720920657599994,0.734784516399994,1.17842799799999,0.0693192939999994,NA,NA,-1.25077846065283
32,1,55,"green","S4-20.jpg",3,2,1,0,1.99498066600063,2,0.3568642080063,1.99678975000279,0.663787019121311,0,2,2,0.71,0.71,0.5,0.5,0.720409684944672,0.734263717347454,1.34384114306987,0.651139522930761,NA,NA,0.394865756586035
32,1,56,"green","S4-20.jpg",3,2,1,0,1.23219791699375,3,0.963304292003158,1.23428429198975,0.663787019121311,0,2,2,0.71,0.71,0.5,0.5,0.733780782029986,0.747625702445646,1.21835299657809,0.0138449204156601,NA,NA,-1.29475255762983
32,1,57,"green","S3-12.jpg",3,1,2,0,1.62034804199357,4,0.681310040992685,1.62263683299534,0.721212063860231,0,2,2,0.71,0.71,0.5,0.5,1.24642157076428,1.26027069932833,NA,NA,NA,NA,-0.33449086296064
32,1,58,"green","S3-12.jpg",3,1,1,1,1.77282616699813,2,0.350986457997351,1.77513154200278,0.721212063860231,0,2,2,0.71,0.71,0.5,0.5,0.664809812624299,0.678660017053972,1.1218665588035,0.650959608194626,NA,NA,-0.0191252379609192
32,1,59,"orange","S3-12.jpg",1,1,1,1,1.77272729200195,3,0.490355458998238,1.77506362501299,0.721212063860231,1,NA,1,0.75,0.75,0.8,0.8,0.650923302531966,0.664772734500731,1.14950285340751,0.623224438594436,NA,NA,-0.0193208172344306
32,1,60,"purple","S3-12.jpg",2,1,2,0,2.16287854099937,4,1.57912558299722,2.16492929100059,0.721212063860231,0,3,2,0.85,0.85,0.8,0.2,0.707094907634409,0.720959513666457,1.22008533082016,0.693230301602362,1.92718023845457,0.24956290857685,0.678221506164014
32,1,61,"green","S3-12.jpg",3,1,2,0,2.34497312500025,2,1.42794583299838,2.34742362500401,0.721212063860231,1,2,2,0.71,0.71,0.5,0.5,0.790908095414286,0.804783676035589,1.24880225591729,0.652152289201253,1.91483012573985,0.444018579881704,0.961676548225168
32,1,62,"purple","S4-20.jpg",2,2,2,1,3.49285916700319,4,0.992928416992072,3.33440833300119,0.663787019121311,0,3,2,0.85,0.85,0.8,0.8,0.785893312575718,0.800446892438231,1.29526860776368,0.727678993125665,2.03750118075186,1.46991156611384,2.35888315599203
32,1,63,"green","S3-12.jpg",3,1,2,0,2.19200533301046,3,0.373484583004029,2.19410687500203,0.721212063860231,0,2,2,0.71,0.71,0.5,0.5,0.846280539959735,0.860153991434484,1.37347169600022,0.818533637010235,NA,NA,0.725129076507409
32,1,64,"purple","S4-20.jpg",2,2,2,1,1.23725533401011,4,0.533754916992621,1.2393166670081,0.663787019121311,0,3,2,0.85,0.85,0.8,0.8,0.63948028499399,0.653382030319946,1.15384486205437,0.0834104719557378,NA,NA,-1.28038943229017
32,1,65,"orange","S3-12.jpg",1,1,1,1,2.17748679198849,2,0.473179458000232,2.17968212498818,0.721212063860231,0,NA,1,0.75,0.75,0.8,0.8,0.642079438663273,0.656037687329865,1.13061814199402,0.711870681996237,1.85644707265685,0.334997967998229,0.701825960348416
32,1,66,"orange","S4-20.jpg",1,2,2,1,2.07659137500741,1,0.532152290994418,2.07871787500335,0.663787019121311,0,NA,1,0.75,0.75,0.8,0.2,0.766527017620185,0.780463872486006,1.65848572903276,0.418105645974646,NA,NA,0.535458720110526
32,1,67,"orange","S3-12.jpg",1,1,2,0,3.68320283301,1,0.948776457997155,3.32882887500455,0.721212063860231,0,NA,1,0.75,0.75,0.8,0.8,0.721293888131125,0.736640566602,1.62674791791275,0.997534100606875,2.6396286969905,1.05892081449038,2.54495236719486
32,1,68,"orange","S3-12.jpg",1,1,1,1,3.07682479200594,2,1.02429662500799,3.07894525000302,0.721212063860231,0,NA,1,0.75,0.75,0.8,0.8,0.720697699028418,0.73455727016358,1.20578268875908,0.859293410380037,2.07893567027428,1.01174869286682,1.91416314016403
32,1,69,"green","S4-20.jpg",3,2,2,1,2.11769683299644,4,0.826329041010467,2.1201633749879,0.663787019121311,0,2,2,0.71,0.71,0.5,0.5,0.835932960393331,0.849865176399887,1.33749273662933,0.780204096367109,NA,NA,0.604193336533854
32,1,70,"orange","S3-12.jpg",1,1,2,0,1.97825999998895,3,1.26782174999244,1.98035324999364,0.721212063860231,0,NA,1,0.75,0.75,0.8,0.8,0.747035244751072,0.760869230764981,1.30039468530742,0.677865314681528,NA,NA,0.36535151343971
32,1,71,"orange","S4-20.jpg",1,2,1,0,2.56625366699882,3,1.45228479101206,2.56868770800065,0.663787019121311,0,NA,1,0.75,0.75,0.8,0.2,0.943271618140107,0.957143259583344,1.51200891731282,0.804555203707738,2.33043576246379,0.249689545978264,1.27788084140225
32,1,72,"orange","S4-20.jpg",1,2,2,1,1.86198541699559,4,0.827293958995142,1.8640279579995,0.663787019121311,0,NA,1,0.75,0.75,0.8,0.2,0.666979850864092,0.68087526442376,1.13942391189282,0.653084437304423,1.80640376275692,0.0694770677983429,0.152939554626266
32,1,73,"purple","S4-20.jpg",2,2,2,1,1.20475595800963,4,0.704540999999153,1.20713712500583,0.663787019121311,0,3,2,0.85,0.85,0.8,0.8,1.09397380095127,1.10782157058357,NA,NA,NA,NA,-1.37373063301648
32,1,74,"orange","S3-12.jpg",1,1,1,1,2.90181412499805,2,0.42965487499896,2.90413962499588,0.721212063860231,0,NA,1,0.75,0.75,0.8,0.8,0.666445349281849,0.680329627391887,1.12462652691312,0.999668023922773,2.13817882894593,0.777519574162157,1.70880748110833
32,1,75,"purple","S4-20.jpg",2,2,2,1,2.06643329199869,3,2.62496825000562,2.06878020899603,0.663787019121311,0,3,2,0.85,0.85,0.8,0.8,0.693342749289034,0.706937705157447,1.16916620468347,0.747722572762684,1.93048373331457,0.149544514552537,0.518263192914553
32,1,76,"purple","S4-20.jpg",2,2,NA,0,NA,1,1.35339237500739,3.33315091700933,0.663787019121311,0,3,2,0.85,0.85,0.8,0.8,0.751200948783198,0.765112077464368,1.36329061075469,0.695556434058516,2.07275817349438,1.27982383866767,NA
32,1,77,"purple","S4-20.jpg",2,2,2,1,1.86917670800176,4,0.897348541999236,1.87156608299119,0.663787019121311,0,3,2,0.85,0.85,0.8,0.8,0.76151643659331,0.775362189985915,1.4676498596162,0.401526848385563,NA,NA,0.166456659013342
32,1,78,"purple","S4-20.jpg",2,2,2,1,2.26045866700588,4,0.533855458998005,2.26231216700398,0.663787019121311,0,3,2,0.85,0.85,0.8,0.8,0.637920850811475,0.651788695394333,1.13716325579437,0.693392229142908,1.84442332952014,0.429903182068603,0.832961358589549
32,1,79,"orange","S3-12.jpg",1,1,1,1,1.54504087498935,3,0.692318000001251,1.54708866598958,0.721212063860231,0,NA,1,0.75,0.75,0.8,0.8,0.695964358103311,0.709883645265377,1.21097798309976,0.334062891889589,NA,NA,-0.501373662539255
32,1,80,"orange","S3-12.jpg",1,1,1,1,2.02746812500118,3,0.638591957991594,2.02988991599705,0.721212063860231,0,NA,1,0.75,0.75,0.8,0.8,0.937876411565172,0.951668711735248,1.43439921768791,0.59306890731327,NA,NA,0.451509904812313
32,1,81,"green","S3-12.jpg",3,1,1,1,2.90050925000105,3,0.389843666998786,2.90263233400765,0.721212063860231,0,2,2,0.71,0.71,0.5,0.5,0.65540353245216,0.669348288461781,1.19924901682736,0.683293044471401,1.89648681730838,1.01796718870229,1.70723027890764
32,1,82,"purple","S3-12.jpg",2,1,2,0,1.47244683401368,4,0.294350166004733,1.47483370901318,0.721212063860231,0,3,2,0.85,0.85,0.8,0.2,0.638986361930465,0.652877369798519,1.27797272386093,0.19447411015275,NA,NA,-0.670129831126911
32,1,83,"green","S4-20.jpg",3,2,2,1,2.00538050000614,4,0.471393208994414,2.00746470800368,0.663787019121311,0,2,2,0.71,0.71,0.5,0.5,0.636189675864017,0.650019886208887,1.21705851034855,0.788321989657586,NA,NA,0.413098355146002
32,1,84,"orange","S3-12.jpg",1,1,1,1,1.60670750000281,3,0.244900167002925,1.60869095899398,0.721212063860231,0,NA,1,0.75,0.75,0.8,0.8,0.637142629311459,0.650993556035621,1.10807413793297,0.498633362069838,NA,NA,-0.364135638052205
32,1,85,"purple","S4-20.jpg",2,2,2,1,1.081204874994,4,0.183399749992532,1.08363216699217,0.663787019121311,0,3,2,0.85,0.85,0.8,0.8,0.748526451918923,0.762388052880385,NA,NA,NA,NA,-1.75315181793359
32,1,86,"green","S3-12.jpg",3,1,1,1,1.54995916699409,3,0.381869541990454,1.55230512500566,0.721212063860231,0,2,2,0.71,0.71,0.5,0.5,0.636590372158287,0.650429293292163,1.27318074431657,0.276778422677516,NA,NA,-0.490228808045128
32,1,87,"green","S4-20.jpg",3,2,2,1,1.44162358299945,4,0.288029333998566,1.4436704999971,0.663787019121311,0,2,2,0.71,0.71,0.5,0.5,0.665364730615131,0.679226495836279,1.12280298291303,0.318820600086417,NA,NA,-0.744314640476784
32,1,88,"orange","S3-12.jpg",1,1,2,0,2.35119466600008,3,0.217458790997625,2.35323074999906,0.721212063860231,0,NA,1,0.75,0.75,0.8,0.8,0.6915278429412,0.705358399800024,1.16176677614122,0.636205615505904,1.81180294850594,0.55322227435296,0.970967816556598
32,1,89,"green","S4-20.jpg",3,2,2,1,1.83504504100711,4,0.254983292004908,1.83691858300881,0.663787019121311,0,2,2,0.71,0.71,0.5,0.5,0.695092818563299,0.708994674934565,1.48749863172546,0.34754640928165,NA,NA,0.101832753548525
32,1,90,"green","S3-12.jpg",3,1,1,1,3.12706099999195,1,0.278638584000873,3.12944008299382,0.721212063860231,0,2,2,0.71,0.71,0.5,0.5,0.792188786664627,0.80608683555348,1.32031464444105,0.653208297776096,1.98742099110599,1.15353805777481,1.97095458722912
32,1,91,"orange","S3-12.jpg",1,1,1,1,1.94700879100128,1,0.38675137500104,1.94913462499972,0.721212063860231,0,NA,1,0.75,0.75,0.8,0.8,0.676620076305409,0.690428649291234,1.21515442275257,0.635194357347935,1.86415735308633,0.0966600109007728,0.309513882373585
32,1,92,"orange","S3-12.jpg",1,1,1,1,2.52716541600239,3,1.02691683299781,2.52901108299557,0.721212063860231,0,NA,1,0.75,0.75,0.8,0.8,0.68414975350341,0.698111993370826,1.20075262859782,0.823772152177575,2.03848702064281,0.502640635226995,1.22405810920727
32,1,93,"purple","S4-20.jpg",2,2,2,1,1.65819908300182,4,0.243445707994397,1.66026324999984,0.663787019121311,0,3,2,0.85,0.85,0.8,0.8,0.663279633200728,0.67709795889241,1.3680142434765,0.290184839525319,NA,NA,-0.253518636489683
32,1,94,"purple","S4-20.jpg",2,2,2,1,2.02815116700367,4,0.345654874996399,2.03007800001069,0.663787019121311,0,3,2,0.85,0.85,0.8,0.8,0.69457231746701,0.70846376381635,1.29190451048864,0.736246656515031,NA,NA,0.452691069952805
32,1,95,"orange","S3-12.jpg",1,1,1,1,1.70478724999703,3,0.410183333995519,1.70720558299217,0.721212063860231,0,NA,1,0.75,0.75,0.8,0.8,0.73458312398246,0.748443182925525,1.41372601219266,0.291061237804371,NA,NA,-0.15635613391861
32,1,96,"orange","S3-12.jpg",1,1,1,1,1.52194074999716,3,0.429877041999134,1.52454700000817,0.721212063860231,0,NA,1,0.75,0.75,0.8,0.8,0.788642024998528,0.802477849998503,1.50810492499719,0.0138358249999742,NA,NA,-0.554197719804332
32,1,97,"orange","S4-20.jpg",1,2,1,0,2.15387754100084,3,0.291649708000477,2.15615595800045,0.663787019121311,0,NA,1,0.75,0.75,0.8,0.2,0.680903222638975,0.694799206774464,1.23674258805855,0.639215270232507,1.88985384242654,0.277919682709786,0.663597907211718
32,1,98,"orange","S3-12.jpg",1,1,1,1,2.40228495901101,4,0.583613833005074,2.40451804200711,0.721212063860231,0,NA,1,0.75,0.75,0.8,0.8,0.63875785037287,0.652643890598367,1.15254133871626,0.749846172176847,1.91627355111861,0.499897448117898,1.04634915898969
32,1,99,"green","S4-20.jpg",3,2,NA,0,NA,1,0.713858082992374,3.3370101670007,0.663787019121311,0,2,2,0.71,0.71,0.5,0.5,0.667734176696176,0.681645305377346,1.18244593789948,0.681645305377346,1.87800237195799,1.47457964020405,NA
32,1,100,"purple","S4-20.jpg",2,2,1,0,1.90066970798944,2,0.851085124988458,1.90298979199724,0.663787019121311,0,3,2,0.85,0.85,0.8,0.8,0.76304258349941,0.776916085017581,1.26248863815357,0.63818106983587,NA,NA,0.225046303867314
32,1,101,"orange","S4-20.jpg",1,2,1,0,1.45827637499315,3,0.248371957990457,1.46029912499944,0.663787019121311,0,NA,1,0.75,0.75,0.8,0.2,0.749970707139334,0.76385905356784,1.41661133570763,0.0416650392855186,NA,NA,-0.704040229045747
32,1,102,"orange","S3-12.jpg",1,1,1,1,1.41973087500082,3,0.270527291999315,1.42171216700808,0.721212063860231,0,NA,1,0.75,0.75,0.8,0.8,0.640270786765076,0.654189716912143,1.16919013235362,0.250540742647204,NA,NA,-0.797975383944766
32,1,103,"purple","S4-20.jpg",2,2,2,1,1.70173787500244,4,0.263075583003229,1.70417508299579,0.663787019121311,0,3,2,0.85,0.85,0.8,0.8,0.733269165651458,0.7471044329279,1.20366825305051,0.498069621951934,NA,NA,-0.162634111217096
32,1,104,"green","S3-12.jpg",3,1,1,1,2.16289745800896,2,0.618979708990082,2.16499929199927,0.721212063860231,0,2,2,0.71,0.71,0.5,0.5,1.24782545654363,1.26169018383856,1.96879127587995,0.194106182129009,NA,NA,0.678252175815721
32,1,105,"orange","S4-20.jpg",1,2,2,1,2.20532629199442,3,0.868245542005752,2.20773545900011,0.663787019121311,1,NA,1,0.75,0.75,0.8,0.2,0.818328624073401,0.832198600752611,1.51182745803391,0.679628857281299,2.20532629199442,0.0138699766792102,0.746374626927204
32,1,106,"green","S3-12.jpg",3,1,2,0,2.7437239169958,4,0.296654790989123,2.74580533300468,0.721212063860231,0,2,2,0.71,0.71,0.5,0.5,0.654594030958389,0.668521563531972,1.19776780132812,0.877434552135713,2.08912988603741,0.668521563531972,1.51236583019856
32,1,107,"purple","S4-20.jpg",2,2,2,1,2.27991104200191,4,0.321518417011248,2.28182550000201,0.663787019121311,0,3,2,0.85,0.85,0.8,0.8,0.653389140085913,0.667291036683486,1.12605362440338,0.79240810606164,1.93236362706259,0.361449311536888,0.863008589841573
32,1,108,"orange","S3-12.jpg",1,1,2,0,2.51691366599698,1,0.412333084008424,2.51893024999299,0.721212063860231,0,NA,1,0.75,0.75,0.8,0.8,0.639657616772713,0.653563217137337,1.19588163135768,0.681374417866586,1.89116164958889,0.639657616772713,1.20980409770498
32,1,109,"orange","S3-12.jpg",1,1,2,0,1.6383909159922,3,0.288694583010511,1.64070820799679,0.721212063860231,0,NA,1,0.75,0.75,0.8,0.8,0.833080126775695,0.84696479555529,1.45789022185747,0.180500694134734,NA,NA,-0.295659648963784
32,1,110,"green","S4-20.jpg",3,2,2,1,2.19592433299113,4,0.376602916992852,2.19797554198885,0.663787019121311,0,2,2,0.71,0.71,0.5,0.5,0.681014508332692,0.694912763604788,1.20914820867233,0.861691826869937,2.08473829081436,0.125084297448862,0.731392850883356
32,1,111,"orange","S3-12.jpg",1,1,2,0,2.05428133301029,4,1.04304854200745,2.05654858300113,0.721212063860231,0,NA,1,0.75,0.75,0.8,0.8,1.05490122505934,1.06878150433643,2.012640495179,0.0416408378312897,NA,NA,0.497581056334793
32,1,112,"purple","S4-20.jpg",2,2,2,1,1.37150424999709,4,0.298485709005035,1.37362574999861,0.663787019121311,0,3,2,0.85,0.85,0.8,0.8,0.651118179291548,0.664971757574347,1.12213984090671,0.24936440909038,NA,NA,-0.919161832045068
32,1,113,"green","S3-12.jpg",3,1,2,0,1.13777995800774,4,0.860188083010144,1.14000470800966,0.721212063860231,0,2,2,0.71,0.71,0.5,0.5,1.06840313129995,1.08227849664151,NA,NA,NA,NA,-1.57430328478079
32,1,114,"purple","S3-12.jpg",2,1,2,0,1.36869679199299,3,0.261821291991509,1.37053849999211,0.721212063860231,0,3,2,0.85,0.85,0.8,0.2,0.768146158771576,0.782112452567423,1.32679791060545,0.0418988813875405,NA,NA,-0.926347239165768
32,1,115,"purple","S4-20.jpg",2,2,2,1,1.48551766699529,4,0.232401042012498,1.48783804199775,0.663787019121311,0,3,2,0.85,0.85,0.8,0.8,0.652517106063352,0.666400448745551,1.12455075725812,0.360966909737173,NA,NA,-0.63913897876528
32,1,116,"purple","S3-12.jpg",2,1,2,0,1.88671329099452,3,0.33128758300154,1.88916020799661,0.721212063860231,0,3,2,0.85,0.85,0.8,0.2,0.707517484122945,0.721390375968493,1.31792472532705,0.568788565667465,NA,NA,0.199202462650285
32,1,117,"orange","S3-12.jpg",1,1,1,1,1.88464245799696,3,0.598429541001678,1.88703487499151,0.721212063860231,0,NA,1,0.75,0.75,0.8,0.8,1.08089788032179,1.09475554545412,1.74606580667365,0.138576651323306,NA,NA,0.195351511532208
32,1,118,"purple","S3-12.jpg",2,1,2,0,2.80274454200116,4,0.282410250001703,2.80458287498914,0.721212063860231,0,3,2,0.85,0.85,0.8,0.2,0.763123513911207,0.776998486891411,1.22099762225793,0.749248540931003,1.98412113616914,0.832498378812226,1.58699765082608
32,1,119,"purple","S3-12.jpg",2,1,2,0,1.14036804100033,4,0.266875959001482,1.14245416599442,0.721212063860231,0,3,2,0.85,0.85,0.8,0.2,0.647616418345866,0.661695036135994,1.11221080542007,0.0281572355802551,NA,NA,-1.5663358808064
32,1,120,"purple","S4-20.jpg",2,2,2,1,1.19899787500617,3,0.328366875008214,1.20109304200741,0.663787019121311,0,3,2,0.85,0.85,0.8,0.8,0.771768747130408,0.785550331900594,NA,NA,NA,NA,-1.39053062786712
32,1,121,"orange","S3-12.jpg",1,1,1,1,1.68361783400178,3,0.584875458007446,1.68614395899931,0.721212063860231,0,NA,1,0.75,0.75,0.8,0.8,0.709624045736287,0.723538242711509,1.21053513684426,0.473082697157525,NA,NA,-0.200172826225929
32,1,122,"purple","S4-20.jpg",2,2,2,1,2.63775362499291,4,0.299197582993656,2.63983145800012,0.663787019121311,0,3,2,0.85,0.85,0.8,0.8,0.860740656576634,0.874623570392386,1.49935469210123,0.749677346050616,2.2629149519676,0.38872158684106,1.37424501616753
32,1,123,"orange","S3-12.jpg",1,1,1,1,1.7919436670054,1,0.750134957997943,1.79431504200329,0.721212063860231,0,NA,1,0.75,0.75,0.8,0.8,0.805680098343513,0.81957113452185,1.66692434140037,0.125019325605028,NA,NA,0.0184865652570018
32,1,124,"purple","S4-20.jpg",2,2,2,1,2.58117591700284,4,0.452074708009604,2.58358712500194,0.663787019121311,0,3,2,0.85,0.85,0.8,0.8,0.707741783694327,0.721619073570686,1.17956963949055,0.763250943199764,1.95669787256667,0.63835533431253,1.29821215788897
32,1,125,"purple","S4-20.jpg",2,2,2,1,2.66667141600919,4,0.390857249993132,2.66887091600802,0.663787019121311,0,3,2,0.85,0.85,0.8,0.8,0.763890249377633,0.77777916300268,1.25000222625431,0.65277894037725,1.91667008025661,0.763890249377633,1.41247917037562
32,1,126,"green","S3-12.jpg",3,1,1,1,1.57187249998969,3,0.483484416996362,1.57429654199223,0.721212063860231,1,2,2,0.71,0.71,0.5,0.5,0.72333955751738,0.737249933623483,NA,NA,NA,NA,-0.440999188857309
32,1,127,"orange","S3-12.jpg",1,1,1,1,2.48331237499951,2,0.513090709006065,2.48547154200787,0.721212063860231,0,NA,1,0.75,0.75,0.8,0.8,0.781266814606587,0.795218007724562,1.39511931179748,0.795218007724562,2.20428851264001,0.29297505547747,1.16267455234788
32,1,128,"green","S3-12.jpg",3,1,2,0,2.74006062500121,1,0.289534125011414,2.74238637500093,0.721212063860231,0,2,2,0.71,0.71,0.5,0.5,0.639811110406374,0.653720047589121,1.43262052982297,0.681537921954616,2.12806738896033,0.625902173223627,1.50768080851589
32,1,129,"purple","S4-20.jpg",2,2,2,1,1.06296704200213,4,0.240214291989105,1.06500391699956,0.663787019121311,0,3,2,0.85,0.85,0.8,0.8,0.855895540313403,0.869700307092652,NA,NA,NA,NA,-1.81280649394168
32,1,130,"purple","S3-12.jpg",2,1,2,0,1.39629212499131,4,0.239809082995635,1.39862162499048,0.721212063860231,0,3,2,0.85,0.85,0.8,0.2,0.793970031857804,0.807659170338111,1.24571160170793,0.150580523283377,NA,NA,-0.856350622107728
32,1,131,"orange","S4-20.jpg",1,2,2,1,1.62687812499644,4,0.429446416004794,1.62879562500166,0.663787019121311,0,NA,1,0.75,0.75,0.8,0.2,0.959440945510721,0.973345886750007,1.50173365384287,0.125144471153572,NA,NA,-0.320387355399489
32,1,132,"green","S4-20.jpg",3,2,2,1,2.5123641659884,3,0.310746624993044,2.51451416598866,0.663787019121311,0,2,2,0.71,0.71,0.5,0.5,0.88834976034949,0.90223022535495,1.38804650054608,0.763425575300343,2.16535254085188,0.36089209014198,1.20345987313757
32,1,133,"purple","S4-20.jpg",2,2,2,1,2.14738049999869,4,0.465455833997112,2.14971549999609,0.663787019121311,0,3,2,0.85,0.85,0.8,0.8,0.725089519480077,0.739033548700848,1.42229098051861,0.725089519480077,NA,NA,0.653004374132957
32,1,134,"green","S3-12.jpg",3,1,1,1,2.62299795799481,3,0.624368916003732,2.62546579199261,0.721212063860231,0,2,2,0.71,0.71,0.5,0.5,0.666158211554237,0.680036507628284,1.41558619955275,0.666158211554237,2.09562270718104,0.541253546887818,1.35457373813657
32,1,135,"orange","S3-12.jpg",1,1,2,0,2.34975925000617,1,0.690741958009312,2.35184241700335,0.721212063860231,0,NA,1,0.75,0.75,0.8,0.8,0.736906747043355,0.750810647930966,1.58504470118759,0.764714548818576,NA,NA,0.968826345606442
32,1,136,"green","S3-12.jpg",3,1,1,1,1.81449733299087,3,0.404817749993526,1.81659845799732,0.721212063860231,0,2,2,0.71,0.71,0.5,0.5,0.789514106721218,0.803365231400538,1.39896359261128,0.415533740379589,NA,NA,0.0623461344005808
32,1,137,"purple","S4-20.jpg",2,2,2,1,2.358988958993,4,0.296239999996033,2.3613092500018,0.663787019121311,0,3,2,0.85,0.85,0.8,0.8,0.874213555391524,0.888089961032659,1.40151696975466,0.666067470774494,2.08146084617029,0.291404518463841,0.982573204752132
32,1,138,"orange","S3-12.jpg",1,1,2,0,3.18265537499974,1,0.502882375003537,3.18503429100383,0.721212063860231,0,NA,1,0.75,0.75,0.8,0.8,0.653208745087283,0.667106803493395,1.13964078930122,0.69490292030562,1.84844176801295,1.3481116653929,2.03274948808951
32,1,139,"orange","S3-12.jpg",1,1,2,0,2.4306032500026,3,0.373874958007946,2.433023125006,0.721212063860231,0,NA,1,0.75,0.75,0.8,0.8,0.694458071429314,0.708347232857901,1.22224620571559,0.638901425714969,1.87503679285915,0.569455618572038,1.08744384322646
32,1,140,"orange","S3-12.jpg",1,1,2,0,2.84300224999606,3,0.504056667006807,2.84509466700547,0.721212063860231,0,NA,1,0.75,0.75,0.8,0.8,0.79049330853549,0.804361612194007,1.30362054390063,0.707283486584386,2.02477233414354,0.832098219511042,1.63700748293403
32,1,141,"orange","S4-20.jpg",1,2,2,1,1.97779824999452,3,0.276327708008466,1.98027254099725,0.663787019121311,0,NA,1,0.75,0.75,0.8,0.2,0.640695207744704,0.654623364434806,1.19782147534879,0.779976774645726,NA,NA,0.364532926879663
32,1,142,"orange","S3-12.jpg",1,1,1,1,2.56928795800195,3,0.345084166998276,2.57161325000925,0.721212063860231,0,NA,1,0.75,0.75,0.8,0.8,0.666626064778884,0.680514107795111,1.13881952733059,0.666626064778884,1.8193336351257,0.763842365892472,1.2820245710527
32,1,143,"purple","S3-12.jpg",2,1,2,0,1.39347962499596,4,0.259916541996063,1.39581679100229,0.721212063860231,0,3,2,0.85,0.85,0.8,0.2,0.69673981249798,0.71067460874794,1.35167523624608,0.0418043887498788,NA,NA,-0.863421028747459
32,1,144,"orange","S3-12.jpg",1,1,NA,0,NA,1,0.546860375005053,3.34268400000292,0.721212063860231,0,NA,1,0.75,0.75,0.8,0.8,0.737289820102027,0.751200948783198,1.41893512547937,0.681645305377346,2.11449155953789,1.23809045262416,NA
32,1,145,"purple","S4-20.jpg",2,2,2,1,1.17970700000296,3,0.186592208003276,1.18176795799809,0.663787019121311,0,3,2,0.85,0.85,0.8,0.8,0.707824200001776,0.721703105884164,1.16582809412057,0.0138789058823878,NA,NA,-1.4474082291408
32,1,146,"purple","S4-20.jpg",2,2,2,1,1.41713566699764,4,0.178224875009619,1.41952720900008,0.663787019121311,0,3,2,0.85,0.85,0.8,0.8,0.889183163606362,0.903076650537712,NA,NA,NA,NA,-0.804391227631494
32,1,147,"purple","S4-20.jpg",2,2,2,1,0.814888416003669,4,0.241771375003736,0.816582957995706,0.663787019121311,0,3,2,0.85,0.85,0.8,0.8,0.662960067257222,0.676771735325081,NA,NA,NA,NA,-2.74475813393098
32,1,148,"orange","S3-12.jpg",1,1,1,1,1.72177320800256,3,0.31438920799701,1.72409133300243,0.721212063860231,0,NA,1,0.75,0.75,0.8,0.8,0.874771871807752,0.888657139614225,1.4024120484537,0.319361159548862,NA,NA,-0.121590064641265
32,1,149,"green","S4-20.jpg",3,2,1,0,1.22140987499733,2,0.58251675000065,1.22351195800002,0.663787019121311,0,2,2,0.71,0.71,0.5,0.5,0.69398288352121,0.707862541191634,1.17977090198606,0.0416389730112726,NA,NA,-1.32558874469071
32,1,150,"purple","S4-20.jpg",2,2,1,0,1.3288137089985,2,0.945966749990475,1.33104829200602,0.663787019121311,0,3,2,0.85,0.85,0.8,0.8,0.816666758655328,0.830508568124062,1.27344647112356,0.0553672378749375,NA,NA,-1.0300469662953
32,1,151,"purple","S4-20.jpg",2,2,2,1,1.39702750000288,4,0.35152266699879,1.39897804200882,0.663787019121311,0,3,2,0.85,0.85,0.8,0.8,0.636269950496361,0.650101905941934,1.17571621287371,0.221311287129169,NA,NA,-0.854504295058147
32,1,152,"green","S4-20.jpg",3,2,1,0,1.94080170799862,1,0.761483082998893,1.94313229099498,0.663787019121311,0,2,2,0.71,0.71,0.5,0.5,0.637691989770975,0.651554859113822,1.23379537151341,0.707006336485211,NA,NA,0.298316842613268
32,1,153,"purple","S4-20.jpg",2,2,1,0,1.29124049999518,2,0.328544167001382,1.29369504099304,0.663787019121311,1,3,2,0.85,0.85,0.8,0.8,0.846942693545226,0.860826999996787,NA,NA,NA,NA,-1.13062848111093
32,1,154,"purple","S4-20.jpg",2,2,2,1,0.976654625002993,4,0.218229165999219,0.97870024999429,0.663787019121311,0,3,2,0.85,0.85,0.8,0.8,0.683658237502095,0.697610446430709,NA,NA,NA,NA,-2.10977028207504
32,1,155,"orange","S3-12.jpg",1,1,2,0,1.11010200000601,2,0.553775667009177,1.11219179199543,0.721212063860231,0,NA,1,0.75,0.75,0.8,0.8,0.666061200003606,0.679937475003681,NA,NA,NA,NA,-1.66066134527445
32,1,156,"purple","S4-20.jpg",2,2,2,1,0.895633874999476,4,0.259046582999872,0.897913792010513,0.663787019121311,0,3,2,0.85,0.85,0.8,0.8,0.702728117307281,0.716507099999581,NA,NA,NA,NA,-2.41344957816923
32,1,157,"orange","S3-12.jpg",1,1,1,1,1.12300287499966,3,0.250160041992785,1.12511520800763,0.721212063860231,0,NA,1,0.75,0.75,0.8,0.8,0.998224777777475,1.01208901080216,NA,NA,NA,NA,-1.62014453333053
32,1,158,"purple","S4-20.jpg",2,2,2,1,1.29780862499319,4,0.348640249998425,1.29999754099117,0.663787019121311,0,3,2,0.85,0.85,0.8,0.8,0.662710787230565,0.676517261964535,NA,NA,NA,NA,-1.11283657669447
32,1,159,"purple","S4-20.jpg",2,2,2,1,1.46455870800128,3,0.421435124997515,1.46694529100205,0.663787019121311,0,3,2,0.85,0.85,0.8,0.8,0.884261861434735,0.898078453019653,1.34020938373702,0.12434932426426,NA,NA,-0.688965910192001
32,1,160,"purple","S4-20.jpg",2,2,2,1,1.20173283301119,3,0.419742375001078,1.2035719580017,0.663787019121311,0,3,2,0.85,0.85,0.8,0.8,0.96691147483659,0.980724495905684,NA,NA,NA,NA,-1.38254097723417
32,1,161,"green","S3-12.jpg",3,1,1,1,1.72314933400776,1,0.550398042003508,1.72501066699624,0.721212063860231,1,2,2,0.71,0.71,0.5,0.5,0.833781935810206,0.847678301407043,1.40353292528051,0.319616408727246,NA,NA,-0.118788509657754
32,1,162,"orange","S4-20.jpg",1,2,2,1,1.45426762499847,3,0.363474541998585,1.45643387499149,0.663787019121311,0,NA,1,0.75,0.75,0.8,0.2,0.775609399999184,0.789459567856312,1.39886695356996,0.0554006714285131,NA,NA,-0.7136931141805
32,1,163,"purple","S4-20.jpg",2,2,1,0,1.92039099999238,1,0.396257667001919,1.92279129099916,0.663787019121311,0,3,2,0.85,0.85,0.8,0.8,0.695793840576949,0.709709717388488,1.16893365216927,0.667962086953871,1.85081161593469,0.0834952608692339,0.261243561495084
32,1,164,"purple","S3-12.jpg",2,1,2,0,1.29208466599812,4,0.242976500012446,1.29423329100246,0.721212063860231,0,3,2,0.85,0.85,0.8,0.2,0.930856694858861,0.944750078364217,NA,NA,NA,NA,-1.12833672084598
32,1,165,"purple","S3-12.jpg",2,1,1,1,1.88174912500835,1,0.258264999996754,1.88386358400749,0.721212063860231,0,3,2,0.85,0.85,0.8,0.2,0.766638532410809,0.780577414818278,1.25449941667223,0.627249708336117,NA,NA,0.18996393540047
32,1,166,"green","S4-20.jpg",3,2,2,1,1.25509483400674,4,0.355586749996291,1.25720387500769,0.663787019121311,0,2,2,0.71,0.71,0.5,0.5,0.655438413314631,0.669383911470261,NA,NA,NA,NA,-1.2301896975833
32,1,167,"purple","S4-20.jpg",2,2,2,1,1.50618674998987,4,0.623785457995837,1.50851737499761,0.663787019121311,0,3,2,0.85,0.85,0.8,0.8,0.655470159717814,0.669416333328831,1.17147858332545,0.334708166664416,NA,NA,-0.590684957768144
32,1,168,"orange","S3-12.jpg",1,1,1,1,1.63848816699465,3,0.332367249997333,1.64057508399128,0.721212063860231,0,NA,1,0.75,0.75,0.8,0.8,0.916442534081753,0.930328027022386,NA,NA,NA,NA,-0.295451509679281
32,1,169,"orange","S3-12.jpg",1,1,2,0,1.36272420799651,4,0.383152249996783,1.36459666700102,0.721212063860231,0,NA,1,0.75,0.75,0.8,0.8,0.667456754937066,0.681362103998255,1.22367071738462,0.139053490611889,NA,NA,-0.941682624782544
32,1,170,"orange","S3-12.jpg",1,1,2,0,1.58833195899206,1,0.788638583006104,1.59064675000263,0.721212063860231,0,NA,1,0.75,0.75,0.8,0.8,0.635332783596824,0.649144365848929,1.25685398494154,0.331477974050517,NA,NA,-0.404471290241533
32,1,171,"green","S4-20.jpg",3,2,2,1,1.66563441700418,4,0.255187458009459,1.66802270899643,0.663787019121311,0,2,2,0.71,0.71,0.5,0.5,0.888338355735563,0.902218642543931,1.47131040168703,0.194324015317154,NA,NA,-0.237830103593949
32,1,172,"purple","S4-20.jpg",2,2,2,1,1.31547241698718,3,0.240198625004268,1.31775495799957,0.663787019121311,1,3,2,0.85,0.85,0.8,0.8,0.706200981751012,0.720048059824562,1.17700163625169,0.138470780735493,NA,NA,-1.06543150314192
32,1,173,"orange","S3-12.jpg",1,1,2,0,1.90989741700469,2,0.960023292005644,1.91213783400599,0.721212063860231,0,NA,1,0.75,0.75,0.8,0.8,1.13486658111873,1.14870641747384,1.67462019896788,0.23527721803681,NA,NA,0.242029737967171
32,1,174,"orange","S4-20.jpg",1,2,2,1,1.30776316599804,3,0.257293832997675,1.30983695799659,0.663787019121311,0,NA,1,0.75,0.75,0.8,0.2,0.806917698169003,0.820830072275366,NA,NA,NA,NA,-1.08604238279528
32,1,175,"purple","S4-20.jpg",2,2,2,1,1.29997749999166,1,0.420281915998203,1.30186783299723,0.663787019121311,0,3,2,0.85,0.85,0.8,0.8,0.705306941484837,0.719136489357089,NA,NA,NA,NA,-1.10698124344833
32,1,176,"purple","S4-20.jpg",2,2,2,1,1.43465333399945,4,0.233381708996603,1.43697391700698,0.663787019121311,0,3,2,0.85,0.85,0.8,0.8,0.738219676718164,0.752148349863789,1.22572323681506,0.208930097184386,NA,NA,-0.761310331756605
32,1,177,"orange","S3-12.jpg",1,1,2,0,1.67205170899979,3,0.326052666991018,1.67420020898862,0.721212063860231,0,NA,1,0.75,0.75,0.8,0.8,0.732386285760238,0.746204894925526,1.3265864798676,0.345465229132188,NA,NA,-0.224345840140449
32,1,178,"orange","S3-12.jpg",1,1,2,0,2.6672647499945,3,0.308180000007269,2.66935679200105,0.721212063860231,0,NA,1,0.75,0.75,0.8,0.8,0.680708191404846,0.694600195311068,1.30584836718481,1.00022428124794,2.31996465233897,0.361192101561755,1.41325930903439
32,1,179,"green","S4-20.jpg",3,2,2,1,1.37270358299429,4,0.273042667002301,1.37502083300205,0.663787019121311,0,2,2,0.71,0.71,0.5,0.5,0.665553252360868,0.679418945118386,NA,NA,NA,NA,-0.916096742284442
32,1,180,"purple","S4-20.jpg",2,2,2,1,1.65265841600194,4,0.32936229200277,1.65467741600878,0.663787019121311,0,3,2,0.85,0.85,0.8,0.8,0.652730634891522,0.666618520740278,1.12491875374922,0.52773966225272,NA,NA,-0.265255237817384
32,1,181,"green","S3-12.jpg",3,1,2,0,1.82740112500323,4,0.408554042005562,1.82951195799978,0.721212063860231,0,2,2,0.71,0.71,0.5,0.5,0.816792927084777,0.830636875001468,1.28748715625228,0.539913968750954,NA,NA,0.087195295153693
32,1,182,"orange","S4-20.jpg",1,2,1,0,1.81739783300145,3,0.609715957994922,1.81952733300568,0.663787019121311,0,NA,1,0.75,0.75,0.8,0.2,0.638170231435624,0.652043497336398,1.1376078038635,0.679790029137947,NA,NA,0.0679470631275932
32,1,183,"orange","S3-12.jpg",1,1,1,1,1.94434866699157,4,0.277148249995662,1.94646816699242,0.721212063860231,0,NA,1,0.75,0.75,0.8,0.8,0.694410238211275,0.7082984429755,1.15272099543072,0.722186647739726,1.88879584793467,0.0694410238211275,0.304719626481069
32,1,184,"purple","S4-20.jpg",2,2,2,1,1.20644987499691,3,0.567121875006706,1.20882862499275,0.663787019121311,0,3,2,0.85,0.85,0.8,0.8,0.757538293602711,0.77156678052128,NA,NA,NA,NA,-1.36880368141782
32,1,185,"purple","S4-20.jpg",2,2,2,1,1.68266204198881,4,0.345659958999022,1.68473695799184,0.663787019121311,0,3,2,0.85,0.85,0.8,0.8,0.68140859551613,0.695314893383806,1.19594161662015,0.486720425368664,NA,NA,-0.202164111924145
32,1,186,"orange","S3-12.jpg",1,1,2,0,1.9053788339952,1,1.42128845799016,1.90766825000173,0.721212063860231,0,NA,1,0.75,0.75,0.8,0.8,0.834472482041693,0.848380356742388,1.43251109417157,0.472867739823626,NA,NA,0.23372364351148
32,1,187,"orange","S3-12.jpg",1,1,1,1,1.75291087500227,1,0.741618083004141,1.75531358300941,0.721212063860231,0,NA,1,0.75,0.75,0.8,0.8,0.862543446429688,0.876455437501135,1.47467105357334,0.278239821428932,NA,NA,-0.058740430001115
32,1,188,"purple","S4-20.jpg",2,2,1,0,1.63459249999141,3,0.737992624999606,1.63666174998798,0.663787019121311,0,3,2,0.85,0.85,0.8,0.8,0.99737847457103,1.01123095338452,1.56533010592398,0.0692623940674326,NA,NA,-0.303798803673076
32,1,189,"purple","S4-20.jpg",2,2,2,1,1.0257682500087,4,0.238083582997206,1.02762387500843,0.663787019121311,0,3,2,0.85,0.85,0.8,0.8,0.83170398649354,0.845565719601766,NA,NA,NA,NA,-1.93772067349183
32,1,190,"purple","S3-12.jpg",2,1,2,0,1.17925916700915,4,0.201560208995943,1.18155091701192,0.721212063860231,0,3,2,0.85,0.85,0.8,0.2,0.776923686500146,0.790797323759077,NA,NA,NA,NA,-1.44873964819077
32,1,191,"purple","S4-20.jpg",2,2,2,1,1.89961666701129,1,0.29915120798978,1.90189133300737,0.663787019121311,0,3,2,0.85,0.85,0.8,0.8,0.679424939296009,0.693290754383682,1.22019172771528,0.679424939296009,NA,NA,0.22310296138388
32,1,192,"orange","S3-12.jpg",1,1,2,0,1.45380083299824,1,1.04633129099966,1.45615179199376,0.721212063860231,0,NA,1,0.75,0.75,0.8,0.8,0.664594666513481,0.678440388732512,1.3014978885889,0.152302944409339,NA,NA,-0.714818856957498
32,1,193,"green","S4-20.jpg",3,2,2,1,1.49958699999843,4,0.51588554099726,1.50202804199944,0.663787019121311,0,2,2,0.71,0.71,0.5,0.5,0.694253240740014,0.708138305554814,1.23577076851722,0.263816231481205,NA,NA,-0.606083949343526
32,1,194,"purple","S4-20.jpg",2,2,2,1,0.899305375001859,4,0.00800216700008605,0.901639916992281,0.663787019121311,0,3,2,0.85,0.85,0.8,0.8,0.664102430770604,0.677937898078324,NA,NA,NA,NA,-2.39910410852505
32,1,195,"orange","S3-12.jpg",1,1,1,1,1.75066337500175,1,0.254086792003363,1.75280995799403,0.721212063860231,0,NA,1,0.75,0.75,0.8,0.8,0.903119995040585,0.91701414881044,1.37552122321566,0.375142151786089,NA,NA,-0.0632393557028652
32,1,196,"orange","S3-12.jpg",1,1,1,1,1.65980220799975,4,0.214506999996956,1.66185516600672,0.721212063860231,0,NA,1,0.75,0.75,0.8,0.8,0.719247623466558,0.733079308533223,1.23101997093315,0.428782237066602,NA,NA,-0.250130107105459
32,1,197,"purple","S3-12.jpg",2,1,2,0,2.22684895900602,3,0.280598832992837,2.22925666699302,0.721212063860231,0,3,2,0.85,0.85,0.8,0.2,0.779397135652107,0.793314941645895,1.2386847334471,0.681972493695594,1.93457503313648,0.306191731863328,0.780431358206117
32,1,198,"orange","S3-12.jpg",1,1,2,0,1.88940404100867,1,0.29033258400159,1.89161566601251,0.721212063860231,0,NA,1,0.75,0.75,0.8,0.8,0.722419192150374,0.736311868922496,1.23644823271891,0.652955808289761,NA,NA,0.204199911194545
32,1,199,"green","S3-12.jpg",3,1,2,0,1.00863391700841,4,0.231828916002996,1.01072195899906,0.721212063860231,0,2,2,0.71,0.71,0.5,0.5,0.842831081335795,0.856647984308513,NA,NA,NA,NA,-1.99678986806503
32,1,200,"orange","S3-12.jpg",1,1,2,0,2.16316287498921,1,0.274622166994959,2.16525774999172,0.721212063860231,0,NA,1,0.75,0.75,0.8,0.8,0.901317864578837,0.915184293264666,1.63623858492774,0.526924290061474,NA,NA,0.678682461125242
32,1,201,"purple","S4-20.jpg",2,2,1,0,1.97281637499691,2,0.509122582996497,1.97489291700185,0.663787019121311,0,3,2,0.85,0.85,0.8,0.8,0.680760580104568,0.694653653167926,1.22259042957555,0.75022594542136,NA,NA,0.355688926021883
32,1,202,"purple","S4-20.jpg",2,2,2,1,1.59350962498866,3,0.957076417005737,1.59561904199654,0.663787019121311,0,3,2,0.85,0.85,0.8,0.8,0.720543482603568,0.734400088038252,1.44108696520714,0.152422659781524,NA,NA,-0.393058909612346
32,1,203,"purple","S4-20.jpg",2,2,2,1,1.53672075000941,4,0.642400334007107,1.53905200000736,0.663787019121311,0,3,2,0.85,0.85,0.8,0.8,0.650683560814795,0.664527891895961,1.1352351486556,0.40148560135381,NA,NA,-0.520308093120257
32,1,204,"purple","S4-20.jpg",2,2,2,1,2.10556608300249,4,1.29892829200253,2.1079663749988,0.663787019121311,0,3,2,0.85,0.85,0.8,0.8,0.706472830481099,0.720325238921904,1.23286435123172,0.637210788277069,1.8839275479496,0.2354909434937,0.584048622139883
32,1,205,"orange","S3-12.jpg",1,1,2,0,2.83917666699563,1,0.505980832997011,2.84122766699875,0.721212063860231,0,NA,1,0.75,0.75,0.8,0.8,0.969474959461922,0.98332460173995,1.44036279691486,0.803279252125593,2.25749169131848,0.595534617955181,1.63228573089178
32,1,206,"orange","S4-20.jpg",1,2,2,1,1.15371479200257,1,0.577899833006086,1.15601991700532,0.663787019121311,0,NA,1,0.75,0.75,0.8,0.2,0.653308376194226,0.667208554411125,NA,NA,NA,NA,-1.52553291324546
32,1,207,"purple","S4-20.jpg",2,2,2,1,1.20561608299613,4,0.256040457999916,1.20797895798751,0.663787019121311,0,3,2,0.85,0.85,0.8,0.8,0.679025150193223,0.692882806319615,NA,NA,NA,NA,-1.37122799586096
32,1,208,"purple","S3-12.jpg",2,1,1,1,1.71990545799781,2,0.42252062499756,1.7223878329969,0.721212063860231,0,3,2,0.85,0.85,0.8,0.2,0.679640060015264,0.693510265321698,1.60894381554634,0.110961642451472,NA,NA,-0.125396065270452
32,1,209,"orange","S3-12.jpg",1,1,1,1,1.97902250000334,3,0.321122416004073,1.9811136250064,0.721212063860231,0,NA,1,0.75,0.75,0.8,0.8,0.93376413732552,0.947700915494557,1.49123526408702,0.487787235916316,NA,NA,0.366702848963999
32,1,210,"orange","S4-20.jpg",1,2,1,0,1.47538262499438,3,0.257834666990675,1.4773944579938,0.663787019121311,0,NA,1,0.75,0.75,0.8,0.2,0.785951491819436,0.799740114482935,1.2547646623784,0.220617962615982,NA,NA,-0.663145202693864
32,1,211,"orange","S3-12.jpg",1,1,2,0,1.46776029199827,1,0.781489083994529,1.46917637500155,0.721212063860231,0,NA,1,0.75,0.75,0.8,0.8,1.03850964056481,1.05235643577234,NA,NA,NA,NA,-0.681308635175735
32,1,212,"purple","S4-20.jpg",2,2,2,1,2.23465141699126,4,0.64673383400077,2.23656866699457,0.663787019121311,0,3,2,0.85,0.85,0.8,0.8,0.634530649269123,0.648324793818452,1.1035315639463,0.758677950213082,1.87600365870871,0.372441902831877,0.792696465007385
32,1,213,"orange","S3-12.jpg",1,1,2,0,2.2475449580088,3,0.679606832985883,2.24936100000923,0.721212063860231,1,NA,1,0.75,0.75,0.8,0.8,0.804676589904385,0.818550324213081,1.31800475932615,0.665939246817422,1.99781774045227,0.26360095186523,0.812870971079314
32,1,214,"orange","S3-12.jpg",1,1,1,1,2.15761795800063,3,0.358116333009093,2.16005370799394,0.721212063860231,0,NA,1,0.75,0.75,0.8,0.8,0.774529523384841,0.788360407730999,1.27244135984653,0.705375101654052,1.99164734584674,0.179801496500052,0.669682234684341
32,1,215,"orange","S3-12.jpg",1,1,1,1,1.32299308299844,4,0.287605207995512,1.3249652920058,0.721212063860231,0,NA,1,0.75,0.75,0.8,0.8,0.710238391925478,0.724164634904409,1.23943562512485,0.0835574578735857,NA,NA,-1.04544087478206
32,1,216,"orange","S3-12.jpg",1,1,1,1,1.35481512499973,3,0.430054124997696,1.35692308298894,0.721212063860231,0,NA,1,0.75,0.75,0.8,0.8,0.649758274234564,0.663582918367215,1.14744546300998,0.207369661989755,NA,NA,-0.962093983122928
32,1,217,"green","S4-20.jpg",3,2,2,1,2.18153241700202,1,0.30438650000724,2.1840233749972,0.663787019121311,0,2,2,0.71,0.71,0.5,0.5,0.699209108013468,0.713193290173737,1.38443403386667,0.65725656153266,2.0556747775596,0.139841821602694,0.708335006552542
32,1,218,"purple","S4-20.jpg",2,2,2,1,1.70100304100197,4,0.189246290989104,1.70304100000067,0.663787019121311,0,3,2,0.85,0.85,0.8,0.8,0.815928287960295,0.829757580976571,1.28612425051368,0.414878790488285,NA,NA,-0.16414865123484
32,1,219,"orange","S3-12.jpg",1,1,2,0,1.55475679200026,3,0.26568212499842,1.55702562500664,0.721212063860231,0,NA,1,0.75,0.75,0.8,0.8,0.680206096500114,0.694087853571545,1.1660675940002,0.388689198000065,NA,NA,-0.479391406681328
32,1,220,"purple","S3-12.jpg",2,1,2,0,1.70216533399071,1,0.239904415997444,1.70416762499372,0.721212063860231,0,3,2,0.85,0.85,0.8,0.2,0.80264706806066,0.81648581061343,1.41155174038254,0.29061359360817,NA,NA,-0.161753391660233
32,1,221,"orange","S3-12.jpg",1,1,2,0,1.75910524999199,3,0.951781541996752,1.76115366700105,0.721212063860231,0,NA,1,0.75,0.75,0.8,0.8,0.664858677162327,0.678709899603209,1.13580024015231,0.623305009839681,NA,NA,-0.0463706541907857
32,1,222,"purple","S4-20.jpg",2,2,1,0,1.47645454099984,3,0.234351958002662,1.47849495799164,0.663787019121311,1,3,2,0.85,0.85,0.8,0.8,0.793942536198027,0.807871352622554,1.28145111105647,0.195003429943375,NA,NA,-0.660598438326208
32,1,223,"green","S3-12.jpg",3,1,2,0,1.6886417499918,4,0.597377666999819,1.69103612499021,0.721212063860231,0,2,2,0.71,0.71,0.5,0.5,0.655918696277807,0.669874413219888,1.11645735536648,0.572184394625321,NA,NA,-0.189724611752862
32,1,224,"orange","S3-12.jpg",1,1,1,1,1.36471487500239,3,0.504154624999501,1.36678708399995,0.721212063860231,0,NA,1,0.75,0.75,0.8,0.8,0.960870677297601,0.974796339287422,NA,NA,NA,NA,-0.936563873561613
32,1,225,"orange","S3-12.jpg",1,1,2,0,1.63252237500274,1,0.27963683399139,1.63490908300446,0.721212063860231,0,NA,1,0.75,0.75,0.8,0.8,0.920910057693853,0.934863240386185,NA,NA,NA,NA,-0.308242584262841
32,1,226,"purple","S4-20.jpg",2,2,2,1,1.18889445900277,4,0.27059424998879,1.19085916700715,0.663787019121311,0,3,2,0.85,0.85,0.8,0.8,0.635920292024737,0.649744646199188,1.11977268813052,0.0691217708722541,NA,NA,-1.42020465382476
32,1,227,"orange","S4-20.jpg",1,2,1,0,1.51163616598933,3,0.264449041991611,1.51401445799274,0.663787019121311,0,NA,1,0.75,0.75,0.8,0.2,0.721147528728855,0.735015750435179,1.27587639698182,0.23575976900751,NA,NA,-0.578020777928069
32,1,228,"orange","S3-12.jpg",1,1,1,1,1.7186203750025,3,0.735779958995408,1.72060087500722,0.721212063860231,0,NA,1,0.75,0.75,0.8,0.8,0.651412561492883,0.665272403226774,1.13650702217907,0.582113352823427,NA,NA,-0.12801713933025
32,1,229,"purple","S4-20.jpg",2,2,2,1,2.32975433400134,4,0.891042333008954,2.33188141700521,0.663787019121311,0,3,2,0.85,0.85,0.8,0.8,0.693379266071827,0.707246851393264,1.17874475232211,0.707246851393264,1.89985918903681,0.443762730285969,0.938844452441126
32,1,230,"green","S4-20.jpg",3,2,1,0,2.23919866599317,3,0.303895958000794,2.24157895799726,0.663787019121311,0,2,2,0.71,0.71,0.5,0.5,0.820575908655882,0.834483974904287,1.47425502233091,0.764943643662263,NA,NA,0.799824795808375
32,1,231,"orange","S3-12.jpg",1,1,2,0,2.15753287500411,4,0.356599999999162,2.15962095800205,0.721212063860231,0,NA,1,0.75,0.75,0.8,0.8,0.73773704758205,0.751656614517561,1.26668059113145,0.70989791371103,1.99049807177799,0.180954370161635,0.669543952196986
32,1,232,"orange","S3-12.jpg",1,1,1,1,1.40255074999004,3,0.298144999993383,1.40461474999029,0.721212063860231,0,NA,1,0.75,0.75,0.8,0.8,0.666558772272494,0.680445413361505,1.2081377747439,0.194412975246144,NA,NA,-0.840667897258996
32,1,233,"green","S3-12.jpg",3,1,2,0,2.26319679200242,1,0.536427125000046,2.26560508299735,0.721212063860231,0,2,2,0.71,0.71,0.5,0.5,1.11077143165763,1.12465607455335,1.61061857590356,0.652578216098857,NA,NA,0.837206422078589
32,1,234,"purple","S4-20.jpg",2,2,2,1,1.3214242910035,4,0.418800125000416,1.32380583300255,0.663787019121311,1,3,2,0.85,0.85,0.8,0.8,0.778944845223116,0.7928545746021,1.27969510286655,0.0417291881369526,NA,NA,-1.04960147320766
32,1,235,"purple","S3-12.jpg",2,1,1,1,2.73513329199341,4,0.587273709010333,2.73769591699238,0.721212063860231,0,3,2,0.85,0.85,0.8,0.2,0.652544490983199,0.666428416323267,1.36062468332667,0.680312341663335,2.05482095033007,0.694196267003404,1.50136930377002
32,1,236,"purple","S4-20.jpg",2,2,2,1,1.27588929199555,4,0.253985332994489,1.27824033299112,0.663787019121311,0,3,2,0.85,0.85,0.8,0.8,0.74889154095391,0.762759902823427,NA,NA,NA,NA,-1.17256769568203
32,1,237,"purple","S3-12.jpg",2,1,2,0,1.50324541599548,4,0.577689208002994,1.5052520409954,0.721212063860231,1,3,2,0.85,0.85,0.8,0.2,1.03000148873764,1.04392042777464,NA,NA,NA,NA,-0.597539529233736
32,1,238,"purple","S4-20.jpg",2,2,2,1,0.929432125005405,3,0.36772879199998,0.931746750007733,0.663787019121311,0,3,2,0.85,0.85,0.8,0.8,0.721350305974344,0.735222427243082,NA,NA,NA,NA,-2.28355659806385
32,1,239,"purple","S4-20.jpg",2,2,1,0,2.45466416599811,2,0.277371000003768,2.45699504099321,0.663787019121311,0,3,2,0.85,0.85,0.8,0.8,0.721144274756507,0.73501243388644,1.30360695821369,0.748880593016373,2.06635571035999,0.402176614768052,1.12198586181507
32,1,240,"purple","S4-20.jpg",2,2,2,1,1.18035249999957,4,0.439358290997916,1.18259754199244,0.663787019121311,0,3,2,0.85,0.85,0.8,0.8,0.860962999999686,0.874849499999681,NA,NA,NA,NA,-1.44549003001098
32,1,241,"purple","S4-20.jpg",2,2,2,1,1.63466887500545,3,1.2983925830049,1.63699220900889,0.663787019121311,0,3,2,0.85,0.85,0.8,0.8,0.664950050849675,0.678803176909043,1.23292821928377,0.401740655721678,NA,NA,-0.303634962878167
32,1,242,"orange","S3-12.jpg",1,1,2,0,2.45622629100399,1,0.927664333998109,2.45860616599384,0.721212063860231,0,NA,1,0.75,0.75,0.8,0.8,0.69384923474689,0.707726219441828,1.15178972967984,0.81874209700133,1.9844088113761,0.485694464322823,1.12421674042288
32,1,243,"purple","S3-12.jpg",2,1,2,0,1.09812966699246,4,0.224647499999264,1.10042195899587,0.721212063860231,0,3,2,0.85,0.85,0.8,0.2,0.875723658487658,0.889624034019208,NA,NA,NA,NA,-1.69868543243973
32,1,244,"orange","S3-12.jpg",1,1,2,0,1.08303204098775,3,0.247939292006777,1.08533674999489,0.721212063860231,0,NA,1,0.75,0.75,0.8,0.8,0.652596229825952,0.666481255992462,NA,NA,NA,NA,-1.74723083658525
32,1,245,"orange","S4-20.jpg",1,2,1,0,1.74673966600676,3,0.226849915998173,1.74889050000638,0.663787019121311,0,NA,1,0.75,0.75,0.8,0.2,0.984273938781587,0.998136952003863,1.56652049411717,0.180219171889586,NA,NA,-0.0711074883988869
32,1,246,"green","S3-12.jpg",3,1,2,0,1.30119025000022,4,0.323920791997807,1.30360174999805,0.721212063860231,0,2,2,0.71,0.71,0.5,0.5,0.727547236559263,0.741538529570018,1.30119025000022,0,NA,NA,-1.10371142722957
32,1,247,"purple","S4-20.jpg",2,2,2,1,1.2444833329937,4,0.206527542002732,1.24653145800403,0.663787019121311,0,3,2,0.85,0.85,0.8,0.8,0.788172777562677,0.802000370151496,NA,NA,NA,NA,-1.25996341711802
32,1,248,"purple","S4-20.jpg",2,2,2,1,2.18481379099831,4,0.278186584007926,2.18686895800056,0.663787019121311,0,3,2,0.85,0.85,0.8,0.8,0.667968547566362,0.681884558973995,1.30810507231746,0.640136524751097,1.96215760847619,0.236572193929753,0.713605581976223
32,1,249,"purple","S4-20.jpg",2,2,2,1,2.05787595899892,1,0.253635667002527,2.06025704200147,0.663787019121311,0,3,2,0.85,0.85,0.8,0.8,0.681323797236129,0.695228364526662,1.30702932531012,0.750846633688795,NA,NA,0.503711677622626
32,1,250,"green","S3-12.jpg",3,1,1,1,1.93069858300441,1,0.427735958000994,1.93302549999498,0.721212063860231,0,2,2,0.71,0.71,0.5,0.5,0.736165646757077,0.750055564620418,1.29176236129072,0.63893622171369,NA,NA,0.280014874163025
32,1,251,"purple","S4-20.jpg",2,2,NA,0,NA,1,0.97225633400376,3.33990333300608,0.663787019121311,0,3,2,0.85,0.85,0.8,0.8,0.779023206145538,0.792934334826708,1.27982383866767,0.695556434058516,1.98929140140736,1.36329061075469,NA
32,1,252,"purple","S4-20.jpg",2,2,2,1,0.954187666007783,3,0.290712583009736,0.9563236660033,0.663787019121311,0,3,2,0.85,0.85,0.8,0.8,0.636125110671855,0.649953917425591,NA,NA,NA,NA,-2.19137917342697
32,1,253,"orange","S3-12.jpg",1,1,1,1,2.15219004100072,3,0.551831999997376,2.15409100000397,0.721212063860231,0,NA,1,0.75,0.75,0.8,0.8,0.805335628245431,0.819220725284145,1.41627989794886,0.652599560819573,2.08276455580715,0.0833105822322859,0.660849485638194
32,1,254,"purple","S4-20.jpg",2,2,2,1,1.75872933299979,3,0.224189209009637,1.76073612499749,0.663787019121311,0,3,2,0.85,0.85,0.8,0.8,0.637020073370003,0.650868335834568,1.21864709688174,0.540082236118046,NA,NA,-0.0471200942984563
32,1,255,"green","S3-12.jpg",3,1,2,0,2.01015733300301,1,0.259297500000685,2.01239612499194,0.721212063860231,0,2,2,0.71,0.71,0.5,0.5,0.734747163097652,0.748610317118362,1.49722063423672,0.512936698766285,NA,NA,0.421441253025536
32,1,256,"orange","S3-12.jpg",1,1,1,1,1.78193504200317,3,0.125200958995265,1.78377974999603,0.721212063860231,1,NA,1,0.75,0.75,0.8,0.8,0.654304273235539,0.668225640751189,1.22508034137718,0.556854700625991,NA,NA,-0.00115409713204463
32,1,257,"green","S4-20.jpg",3,2,2,1,1.02568179200171,3,0.457458834003774,1.02798145900306,0.663787019121311,1,2,2,0.71,0.71,0.5,0.5,0.651446543568654,0.665307108325434,NA,NA,NA,NA,-1.93801624642523
32,1,258,"purple","S4-20.jpg",2,2,2,1,1.3548573750013,4,0.291195167010301,1.35717945899523,0.663787019121311,0,3,2,0.85,0.85,0.8,0.8,0.70507883801088,0.718903913265996,1.21660662245015,0.138250752551153,NA,NA,-0.961984630221035
32,1,259,"purple","S4-20.jpg",2,2,2,1,1.98481841600733,3,0.567860209004721,1.98719949999941,0.663787019121311,1,3,2,0.85,0.85,0.8,0.8,0.680112604086428,0.693992453149416,1.23530656660596,0.638473056897463,1.88765947256641,0.111038792503907,0.376957634044288
32,1,260,"orange","S3-12.jpg",1,1,2,0,2.54070925000997,1,0.343232291997992,2.54302224999992,0.721212063860231,0,NA,1,0.75,0.75,0.8,0.8,0.749717483609499,0.763601140713379,1.23564548224529,0.694182855193981,1.94371199454315,0.610880912570703,1.24280102600543
32,1,261,"green","S4-20.jpg",3,2,2,1,2.37033658300061,1,1.86056916699454,2.37238487499417,0.663787019121311,0,2,2,0.71,0.71,0.5,0.5,0.637634402444609,0.651496019889057,1.37230012700035,0.998036456000257,NA,NA,0.999400989494658
32,1,262,"orange","S3-12.jpg",1,1,1,1,1.77018708399555,3,0.362707959007821,1.77253641700372,0.721212063860231,0,NA,1,0.75,0.75,0.8,0.8,0.857434368810345,0.87126395540406,1.65955039124583,0.110636692749722,NA,NA,-0.0243492087516324
32,1,263,"purple","S4-20.jpg",2,2,2,1,2.33926833300211,4,0.955226874997607,2.34129579200817,0.663787019121311,0,3,2,0.85,0.85,0.8,0.8,0.756822107735977,0.770582509694813,1.21091537237756,0.756822107735977,1.98149788207238,0.37153085288857,0.953135303958968
32,1,264,"orange","S4-20.jpg",1,2,1,0,2.20702008300577,3,0.644613249998656,2.20935862499755,0.663787019121311,0,NA,1,0.75,0.75,0.8,0.2,0.652389584284724,0.666270213737591,1.23537602130512,0.735673361001923,1.98493001175991,0.23597070069873,0.74906684747163
32,1,265,"purple","S3-12.jpg",2,1,1,1,2.93856345899985,2,0.538214208005229,2.94060654200439,0.721212063860231,0,3,2,0.85,0.85,0.8,0.2,0.76236316153298,0.776224309924489,1.28908680041031,0.679196271183928,1.98214421998575,0.970280387405611,1.75293755614645
32,1,266,"orange","S3-12.jpg",1,1,1,1,2.14950445799332,2,1.46996249999211,2.15182349999668,0.721212063860231,0,NA,1,0.75,0.75,0.8,0.8,0.697891057790039,0.71184887894584,1.20037261939887,0.949131838594453,NA,NA,0.65647104506735
32,1,267,"purple","S4-20.jpg",2,2,2,1,2.18500225000025,3,0.523401500002365,2.18740533301025,0.663787019121311,0,3,2,0.85,0.85,0.8,0.8,1.2525490605097,1.26646627229314,1.73965147293014,0.445350777070115,NA,NA,0.713908046274245
32,1,268,"purple","S4-20.jpg",2,2,2,1,1.73147904200596,4,2.93633050000062,1.73388362501282,0.663787019121311,0,3,2,0.85,0.85,0.8,0.8,0.664887952130289,0.678739784466336,1.24666491024429,0.484814131761669,NA,NA,-0.101878273619873
32,1,269,"purple","S4-20.jpg",2,2,2,1,2.35512904101051,1,0.422170125006232,2.35696050000843,0.663787019121311,0,3,2,0.85,0.85,0.8,0.8,0.900490515680489,0.914344215921727,1.55161442701869,0.720392412544391,2.28586053980432,0.0831222014474298,0.976830743000896
32,1,270,"green","S4-20.jpg",3,2,2,1,1.50938729100744,3,0.386386083002435,1.51127633301076,0.663787019121311,0,2,2,0.71,0.71,0.5,0.5,0.670838796003307,0.684814604253376,1.15999208475572,0.349395206251722,NA,NA,-0.583241513327455
32,1,271,"purple","S3-12.jpg",2,1,1,1,2.57476537500042,3,0.585670167012722,2.57683954200184,0.721212063860231,0,3,2,0.85,0.85,0.8,0.2,0.705984054435599,0.719826879032375,1.20432573991955,0.636769931451717,1.85493849596804,0.733669703629152,1.28949234036103
32,1,272,"orange","S3-12.jpg",1,1,NA,0,NA,1,0.58989504200872,3.33716408300097,0.721212063860231,0,NA,1,0.75,0.75,0.8,0.8,0.653823048015005,0.667734176696176,1.11289029449363,0.792934334826708,1.9197357580015,1.43284625416054,NA
32,1,273,"green","S4-20.jpg",3,2,2,1,2.29363804199966,3,1.27027770900168,2.29629374999786,0.663787019121311,0,2,2,0.71,0.71,0.5,0.5,0.653339321054449,0.667240157672628,1.15376943930892,0.847951033708965,2.01562130963606,0.291917568981775,0.884058196267363
32,1,274,"orange","S3-12.jpg",1,1,1,1,2.16994887500186,3,0.695296374993632,2.17203587500262,0.721212063860231,1,NA,1,0.75,0.75,0.8,0.8,0.723316291667287,0.737226220353196,1.29362336778957,0.709406362981377,2.01693965945686,0.166919144230912,0.689665808219363
32,1,275,"green","S4-20.jpg",3,2,2,1,2.44764399999985,4,0.386244042005274,2.45002358300553,0.663787019121311,0,2,2,0.71,0.71,0.5,0.5,0.709260477272684,0.723167545454501,1.29335734090901,0.737074613636318,2.04433902272715,0.41721204545452,1.11194276944766
32,1,276,"orange","S3-12.jpg",1,1,2,0,2.29019554100523,1,0.412112999998499,2.29224100000283,0.721212063860231,1,NA,1,0.75,0.75,0.8,0.8,0.684265740910099,0.698230347867448,1.20095619833201,0.67030113395275,1.88522193924211,0.418938208720469,0.878791167375756
33,1,1,"red","S2-19.jpg",3,1,1,1,2.08978329199999,2,1.85520354200025,2.09350862499969,0.52511848496802,0,2,NA,0.5,NA,0.5,0.5,0.719660471417215,0.733500095867546,1.19020770272847,0.747339720317877,1.95138704749668,0.152235868953642,-0.0548797076519949
33,1,2,"yellow","S2-19.jpg",1,1,2,0,2.03038454100033,3,0.942429250000259,2.03262916600033,0.52511848496802,0,1,NA,0.5,0.5,0.8,0.8,0.700132600344941,0.71413525235184,1.2042280725933,0.798151164393233,2.01638188899343,0.0280053040137977,-0.175801587875504
33,1,3,"blue","S1-15.jpg",2,2,1,0,2.98815458299987,1,0.69654595899965,2.99220829099977,0.754625511720623,0,2,NA,0.5,0.5,0.8,0.8,0.778310030920896,0.792208424330198,1.36204255411157,0.681021277055784,2.05696222457665,0.945090751832517,1.44471742036264
33,1,4,"yellow","S2-19.jpg",1,1,1,1,3.52585266599999,2,1.22561470800019,3.33573124999975,0.52511848496802,0,1,NA,0.5,0.5,0.8,0.8,0.763934744299998,0.778625797074998,1.2928126442,0.705170533199998,2.01267423017499,1.5278694886,2.13860952966755
33,1,5,"yellow","S2-19.jpg",1,1,1,1,3.86733479200029,3,1.21148037500006,3.40047058300024,0.52511848496802,0,1,NA,0.5,0.5,0.8,0.8,0.854036433233397,0.870150328200065,1.49859223190011,0.966833698000072,2.48153982486685,1.4019088621001,2.52627559031475
33,1,6,"blue","S1-15.jpg",2,2,2,1,2.97913537500017,3,0.367102416999842,2.98173020900003,0.754625511720623,0,2,NA,0.5,0.5,0.8,0.8,0.734391511046554,0.748247954651206,1.24707992441868,0.70667862383725,1.96761499186058,1.02537682674424,1.43204078531645
33,1,7,"blue","S1-15.jpg",2,2,2,1,3.15199937499983,3,0.345553541999834,3.15614049999976,0.754625511720623,1,2,NA,0.5,0.5,0.8,0.8,0.70815844988983,0.722043909691591,1.33300414096909,0.680387530286307,2.02727713105716,1.13860770374443,1.66857349632104
33,1,8,"red","S1-15.jpg",3,2,2,1,1.90674941700036,3,0.528137458999936,1.91018358300016,0.754625511720623,0,2,NA,0.5,NA,0.5,0.5,0.718485287565353,0.732302312326225,1.39551950084809,0.511229916152271,NA,NA,-0.439262922101125
33,1,9,"yellow","S1-15.jpg",1,2,1,0,2.35614679200035,2,0.398879709000084,2.35838650000005,0.754625511720623,0,1,NA,0.5,0.5,0.8,0.2,0.776142472658939,0.790002159670706,1.30281057910608,0.692984350588338,2.00965461670618,0.360351862305936,0.44820939589558
33,1,10,"blue","S1-15.jpg",2,2,2,1,2.21579066599998,3,0.967962917000023,2.21786220800004,0.754625511720623,1,2,NA,0.5,0.5,0.8,0.8,0.822211630779867,0.836147421132068,1.50506535803772,0.682853727257855,2.20185487564778,0.0278715807044023,0.190648469980608
33,1,11,"blue","S1-15.jpg",2,2,2,1,2.28319495899996,4,0.943500458000017,2.2861344590001,0.754625511720623,0,2,NA,0.5,0.5,0.8,0.8,0.678039715096958,0.691877260303018,1.4667797918424,0.691877260303018,2.17249459735148,0.124537906854543,0.31631448548149
33,1,12,"yellow","S2-19.jpg",1,1,1,1,3.13049783300039,3,0.350160165999569,3.13281958300013,0.52511848496802,0,1,NA,0.5,0.5,0.8,0.8,0.637180974858486,0.651032735181497,1.09428906551784,0.817253859057624,1.92539468489847,1.21895490842493,1.63986890331833
33,1,13,"red","S1-15.jpg",3,2,2,1,3.41964475000032,3,0.267073375000109,3.33307412500017,0.754625511720623,0,2,NA,0.5,NA,0.5,0.5,0.740923029166736,0.755171548958404,1.29661530104179,0.683928950000064,1.99479277083352,1.43910049895847,2.01034700540837
33,1,14,"yellow","S2-19.jpg",1,1,1,1,3.31998045799992,3,0.268899165999755,3.3227945829999,0.52511848496802,0,1,NA,0.5,0.5,0.8,0.8,0.930705818769852,0.944596950393283,1.44467768883679,0.861250160652699,2.31981898111292,1.01405260851044,1.88631096458728
33,1,15,"yellow","S2-19.jpg",1,1,1,1,2.63859920800041,4,0.46512466599961,2.64124433300003,0.52511848496802,0,1,NA,0.5,0.5,0.8,0.8,0.638818755621152,0.652706119873786,1.1943133257265,0.70825557688432,1.91645626686346,0.736030305389588,0.923006286835758
33,1,16,"yellow","S2-19.jpg",1,1,1,1,2.15079345799995,3,0.811985750000076,2.15363658299975,0.52511848496802,0,1,NA,0.5,0.5,0.8,0.8,0.874193470025786,0.888069556851592,1.47086520353545,0.666052167638694,2.15079345799995,0.0138760868258061,0.065795941010632
33,1,17,"red","S2-19.jpg",3,1,1,1,2.6597162500002,2,0.986436250000224,2.66241483300018,0.52511848496802,0,2,NA,0.5,NA,0.5,0.5,0.807662526178071,0.821587742146659,1.29504508507863,0.668410366492197,1.97738066753942,0.696260798429372,0.956434253951431
33,1,18,"yellow","S2-19.jpg",1,1,1,1,2.07640758300022,3,0.36578154100016,2.07857150000018,0.52511848496802,0,1,NA,0.5,0.5,0.8,0.8,0.636764992120068,0.650607709340069,1.12126009482012,0.830563033200088,1.96566584524021,0.124584454980013,-0.081806928718346
33,1,19,"yellow","S1-15.jpg",1,2,2,1,3.6938255,3,0.889154999999846,3.32969841700015,0.754625511720623,0,1,NA,0.5,0.5,0.8,0.2,0.815719797916667,0.8311107375,1.35440268333333,0.8311107375,2.20090436041667,1.50831207916667,2.33377904648283
33,1,20,"yellow","S2-19.jpg",1,1,1,1,3.15050508299964,3,0.689676625000175,3.15321833300004,0.52511848496802,0,1,NA,0.5,0.5,0.8,0.8,1.06867353035671,1.08255240737433,1.54055534895577,0.6384283428105,2.19286256878389,0.971521391233369,1.66658495457224
33,1,21,"blue","S1-15.jpg",2,2,2,1,3.01161316700018,3,0.692952290999983,3.01411633299995,0.754625511720623,0,2,NA,0.5,0.5,0.8,0.8,0.735555289635989,0.749433691327234,1.22129934882957,0.763312093018479,1.99848984353929,1.02700172515214,1.47751048182105
33,1,22,"red","S1-15.jpg",3,2,2,1,2.06741562500019,4,0.438823583000158,2.07001625000021,0.754625511720623,0,2,NA,0.5,NA,0.5,0.5,0.790890541107455,0.804765813758463,1.33202617449677,0.735389450503423,NA,NA,-0.100006708299374
33,1,23,"yellow","S2-19.jpg",1,1,1,1,2.79491374999998,2,0.865409333000116,2.797229625,0.52511848496802,0,1,NA,0.5,0.5,0.8,0.8,0.664137920792074,0.677974127475243,1.18991377475247,0.719482747524747,1.92323272896038,0.885517227722766,1.16435829996538
33,1,24,"blue","S1-15.jpg",2,2,2,1,1.67749770799992,3,0.32218708299979,1.67987062500015,0.754625511720623,0,2,NA,0.5,0.5,0.8,0.8,0.720908105917321,0.734771723338808,1.17840748082639,0.49909022717353,NA,NA,-0.976443518136147
33,1,25,"yellow","S2-19.jpg",1,1,2,0,1.96891304200017,3,0.456839665999723,1.97125766699992,0.52511848496802,0,1,NA,0.5,0.5,0.8,0.8,0.651682485732451,0.665548070535269,1.16470912343672,0.651682485732451,1.83025719397199,0.152521432830999,-0.304726452213276
33,1,26,"blue","S1-15.jpg",2,2,2,1,2.07641316699983,3,0.330560625000089,2.07848662499964,0.754625511720623,0,2,NA,0.5,0.5,0.8,0.8,0.719823231226608,0.733665985673273,1.28737616353989,0.636766704546614,1.93798562253317,0.152270298913321,-0.081795651172828
33,1,27,"blue","S1-15.jpg",2,2,2,1,1.95017404100008,4,0.321362958000009,1.95253145800007,0.754625511720623,0,2,NA,0.5,0.5,0.8,0.8,0.66388903523407,0.677720056801446,1.21712989792913,0.705382099936199,1.9363430194327,0.0276620431347529,-0.344829485768927
33,1,28,"yellow","S1-15.jpg",1,2,1,0,2.05532679099997,2,0.464574416999767,2.05781179099995,0.754625511720623,0,1,NA,0.5,0.5,0.8,0.2,0.722141845486476,0.736029188668908,1.38873431824322,0.666592472756747,NA,NA,-0.124599727708879
33,1,29,"red","S1-15.jpg",3,2,2,1,2.23519212499968,3,0.312097832999825,2.23754441699975,0.754625511720623,0,2,NA,0.5,NA,0.5,0.5,0.874640396739005,0.888523577639624,1.34666854736006,0.735808587732814,2.09636031599349,0.15271498990681,0.227207412154406
33,1,30,"red","S2-19.jpg",3,1,1,1,1.76677920800012,3,0.607685459000095,1.76857149999978,0.52511848496802,0,2,NA,0.5,NA,0.5,0.5,0.820787191118166,0.834698838425253,1.44681131993711,0.319967888063014,NA,NA,-0.75898665786024
33,1,31,"yellow","S2-19.jpg",1,1,1,1,2.88996491700027,3,0.322917166000025,2.89225770800022,0.52511848496802,1,1,NA,0.5,0.5,0.8,0.8,0.63912685664429,0.653020918745253,1.18099527858184,0.63912685664429,1.83401619732709,1.06984278177414,1.30460386089216
33,1,32,"blue","S1-15.jpg",2,2,2,1,2.50045991700017,3,0.413105375000214,2.50278733300001,0.754625511720623,0,2,NA,0.5,0.5,0.8,0.8,0.861269526966725,0.87516097095006,1.38914439833343,0.639006423233377,2.04204226555014,0.472309095433365,0.697504163237521
33,1,33,"yellow","S2-19.jpg",1,1,1,1,2.32787341599987,3,0.560728833000212,2.33054608300017,0.52511848496802,0,1,NA,0.5,0.5,0.8,0.8,0.720532247809484,0.734388637190435,1.19164948676184,0.665106690285677,1.87061256642847,0.471117238952355,0.397583050403335
33,1,34,"blue","S1-15.jpg",2,2,1,0,2.20695816699981,3,0.36751062500025,2.20913845899986,0.754625511720623,0,2,NA,0.5,0.5,0.8,0.8,0.694012002201198,0.707892242245222,1.24922160396216,0.777293442465342,2.04039528647152,0.180443120572312,0.173898875651554
33,1,35,"blue","S1-15.jpg",2,2,2,1,1.84451450000006,2,0.295537540999703,1.84769183300023,0.754625511720623,0,2,NA,0.5,0.5,0.8,0.8,0.830735538167966,0.844815801526745,1.29538422900768,0.549130270992384,NA,NA,-0.578421102144245
33,1,36,"yellow","S2-19.jpg",1,1,1,1,2.82814612500033,3,0.296746083000016,2.83020916600026,0.52511848496802,0,1,NA,0.5,0.5,0.8,0.8,0.693173069853022,0.707036531250083,1.1922576801472,0.679309608455962,1.88543075000022,0.95657883639717,1.21392683954846
33,1,37,"blue","S1-15.jpg",2,2,2,1,1.95145658299998,4,0.320280207999986,1.95349820799993,0.754625511720623,1,2,NA,0.5,0.5,0.8,0.8,0.885767527035452,0.899607644645381,1.35633152577304,0.595125057226944,NA,NA,-0.342072478852869
33,1,38,"red","S1-15.jpg",3,2,2,1,2.58552854199979,3,0.62596666699983,2.588106917,0.754625511720623,0,2,NA,0.5,NA,0.5,0.5,0.677491436138982,0.691317791978553,1.20289295804268,0.691317791978553,1.90803710586081,0.691317791978553,0.83780069744605
33,1,39,"yellow","S1-15.jpg",1,2,1,0,1.97941941599993,2,0.39065358300013,1.98174629100004,0.754625511720623,1,1,NA,0.5,0.5,0.8,0.2,0.73363097236361,0.747473066181792,1.20426216218178,0.775157253818154,NA,NA,-0.282408591502337
33,1,40,"yellow","S2-19.jpg",1,1,1,1,2.11368737500015,2,0.572305083999709,2.11631504200022,0.52511848496802,0,1,NA,0.5,0.5,0.8,0.8,0.667480223684258,0.68138606167768,1.14027871546061,0.778726927631634,1.93291148108566,0.194681731907909,-0.00718379713887588
33,1,41,"yellow","S1-15.jpg",1,2,1,0,2.85361775000001,1,0.310641582999779,2.85563037500015,0.754625511720623,0,1,NA,0.5,0.5,0.8,0.2,0.692625667475731,0.706478180825245,1.20516866140777,0.90041336771845,2.11943454247574,0.748035720873789,1.25152692014596
33,1,42,"blue","S1-15.jpg",2,2,2,1,2.07328691700013,2,0.610252957999819,2.07554662499979,0.754625511720623,0,2,NA,0.5,0.5,0.8,0.8,0.704917551780044,0.718739464560045,1.21632832464008,0.691095639000043,1.92124587642012,0.16586295336001,-0.0881142309407152
33,1,43,"yellow","S2-19.jpg",1,1,1,1,1.85909333299969,3,0.43793395900002,1.86176954199982,0.52511848496802,0,1,NA,0.5,0.5,0.8,0.8,0.832429850596876,0.846303681440157,1.41513074601469,0.443962586985001,NA,NA,-0.545406018215904
33,1,44,"red","S2-19.jpg",3,1,2,0,3.30288312500033,2,0.35392070800026,3.30513366700006,0.52511848496802,0,2,NA,0.5,NA,0.5,0.5,0.633052598958397,0.646814611979231,1.08719902864594,0.674338638020901,1.77529967968768,1.54134545833349,1.8646590691621
33,1,45,"yellow","S2-19.jpg",1,1,1,1,2.36947070799988,2,1.00620366600015,2.37174112499997,0.52511848496802,0,1,NA,0.5,0.5,0.8,0.8,0.637401477005816,0.651258030853768,1.12238086168415,0.706684246245578,1.84292166177768,0.540405600070148,0.471856984750117
33,1,46,"yellow","S2-19.jpg",1,1,1,1,3.19884391699998,3,0.539384167000208,3.20169825000039,0.52511848496802,0,1,NA,0.5,0.5,0.8,0.8,0.6814928344913,0.695400851521735,1.27953756679999,0.723216885582604,2.01666246941303,1.19608946461738,1.73043890301992
33,1,47,"blue","S1-15.jpg",2,2,2,1,1.65963133299965,3,0.367296249999981,1.66192633299988,0.754625511720623,0,2,NA,0.5,0.5,0.8,0.8,0.746834099849843,0.760664360958173,1.31387480529139,0.34575652770826,NA,NA,-1.02134699706664
33,1,48,"blue","S2-19.jpg",2,1,1,1,2.43835562499999,3,0.283317458000056,2.44072362499992,0.52511848496802,0,2,NA,0.5,0.5,0.8,0.2,0.692714666193179,0.706568959517043,1.44084650568181,0.914383359374996,2.36908415838067,0.0831257599431815,0.592032912396864
33,1,49,"yellow","S2-19.jpg",1,1,1,1,2.7548417500002,3,0.298197042000083,2.75703049999993,0.52511848496802,0,1,NA,0.5,0.5,0.8,0.8,0.844448978643277,0.858292404522675,1.48124656909558,0.719858145728695,2.21494814070368,0.55373703517592,1.10379812639051
33,1,50,"red","S1-15.jpg",3,2,2,1,1.61643308300017,3,1.1176827080003,1.6190686660002,0.754625511720623,0,2,NA,0.5,NA,0.5,0.5,0.654934093974207,0.668868861931105,1.50495493934499,0.111478143655184,NA,NA,-1.13194601955754
33,1,51,"yellow","S2-19.jpg",1,1,2,0,2.38874200000009,3,0.68949291700028,2.39099774999977,0.52511848496802,0,1,NA,0.5,0.5,0.8,0.8,0.76384191860468,0.777729953488401,1.31936331395354,0.999938511627945,2.3331898604652,0.0694401744186073,0.505825905537277
33,1,52,"blue","S1-15.jpg",2,2,2,1,2.85567691699998,3,0.892876459000036,2.8578527919999,0.754625511720623,1,2,NA,0.5,0.5,0.8,0.8,1.09513823516019,1.10900074446601,1.63577609808737,0.762438011820383,2.41207661921357,0.45746280709223,1.2545518933049
33,1,53,"blue","S2-19.jpg",2,1,1,1,3.70809695800017,3,0.95132595799987,3.33226550000018,0.52511848496802,1,2,NA,0.5,0.5,0.8,0.2,1.25148272332506,1.26693312731672,1.76134605505008,0.927024239500043,2.70382069854179,1.01972666345005,2.34995004160228
33,1,54,"blue","S1-15.jpg",2,2,2,1,3.06700008400003,1,0.327311707999797,3.069078042,0.754625511720623,0,2,NA,0.5,0.5,0.8,0.8,0.929814505104081,0.943692333538471,1.45717198561087,0.666135764850685,2.13718557889595,0.943692333538471,1.55393401183268
33,1,55,"blue","S1-15.jpg",2,2,2,1,1.94057537500021,2,0.338270083000225,1.94327570899986,0.754625511720623,0,2,NA,0.5,0.5,0.8,0.8,0.665340128571501,0.679201381250073,1.55246030000017,0.388115075000042,NA,NA,-0.365520934317008
33,1,56,"yellow","S2-19.jpg",1,1,2,0,1.97025654200024,2,0.435437333000209,1.97408437500007,0.52511848496802,0,1,NA,0.5,0.5,0.8,0.8,0.707627349591636,0.72150239566206,1.3181293766903,0.652127165309939,NA,NA,-0.30186592947047
33,1,57,"blue","S1-15.jpg",2,2,2,1,3.33793691700021,3,0.0308649170001445,3.32695258400008,0.754625511720623,0,2,NA,0.5,0.5,0.8,0.8,0.709311594862545,0.723219665350045,1.26563441436258,0.904024581687557,2.18356706653764,1.16827792095007,1.90893112837677
33,1,58,"blue","S1-15.jpg",2,2,2,1,1.5744947080002,3,0.321325750000142,1.57769720800025,0.754625511720623,0,2,NA,0.5,0.5,0.8,0.8,0.801058711087821,0.814870068175542,1.45019249421071,0.124302213789489,NA,NA,-1.2421841973515
33,1,59,"blue","S1-15.jpg",2,2,2,1,2.37986245799993,3,0.29523566700027,2.38255895800012,0.754625511720623,0,2,NA,0.5,0.5,0.8,0.8,0.65031125305812,0.664147662697655,1.13458559044183,0.705656891616258,1.85407889169762,0.539619975941845,0.490208382237071
33,1,60,"red","S1-15.jpg",3,2,2,1,2.01000987499992,3,0.788034458999846,2.01208020800004,0.754625511720623,0,2,NA,0.5,NA,0.5,0.5,0.817866087068933,0.831728224137898,1.27531661034478,0.734693264655143,NA,NA,-0.218095982437275
33,1,61,"blue","S1-15.jpg",2,2,2,1,3.39943825,3,0.616232749999654,3.33169762500029,0.754625511720623,0,2,NA,0.5,0.5,0.8,0.8,0.665723323958333,0.67988765,1.147310409375,0.665723323958333,1.827198059375,1.58640451666667,1.98549400739989
33,1,62,"red","S1-15.jpg",3,2,2,1,1.6736806670001,3,0.642314167000222,1.67605675000004,0.754625511720623,0,2,NA,0.5,NA,0.5,0.5,0.6777715097769,0.691603581405,1.3278788762976,0.3458017907025,NA,NA,-0.985996564005683
33,1,63,"red","S2-19.jpg",3,1,1,1,1.60015862499995,4,0.498152166000182,1.60250908299986,0.52511848496802,1,2,NA,0.5,NA,0.5,0.5,0.74393339583331,0.757969874999976,1.41768439583329,0.182474229166661,NA,NA,-1.17438126289875
33,1,64,"blue","S1-15.jpg",2,2,2,1,1.71537287500041,3,0.400110042000051,1.71777262500018,0.754625511720623,0,2,NA,0.5,0.5,0.8,0.8,0.733183567540498,0.747017219758243,1.50786809173423,0.207504783266179,NA,NA,-0.882812941427221
33,1,65,"blue","S1-15.jpg",2,2,2,1,3.09256633400037,3,1.15762895899979,3.09461975000022,0.754625511720623,0,2,NA,0.5,0.5,0.8,0.8,0.679532512852099,0.693400523318469,1.2203849210405,0.66566450238573,1.8999174338926,1.20651691057414,1.5887462365365
33,1,66,"yellow","S2-19.jpg",1,1,2,0,3.12959304100013,3,0.916231958000026,3.1316093749997,0.52511848496802,0,1,NA,0.5,0.5,0.8,0.8,0.639827910604471,0.653737213008916,1.40483954284895,0.653737213008916,2.07248605826231,1.07101628514227,1.63865668592047
33,1,67,"yellow","S2-19.jpg",1,1,1,1,2.12254358399969,2,0.801164083999993,2.12464199999977,0.52511848496802,0,1,NA,0.5,0.5,0.8,0.8,0.707514527999897,0.721387361882248,1.19306371388218,0.735260195764598,1.94219674352913,0.194219674352913,0.0103502130743219
33,1,68,"blue","S1-15.jpg",2,2,2,1,2.84074841699976,3,0.285675583999819,2.84345587500002,0.754625511720623,0,2,NA,0.5,0.5,0.8,0.8,0.706722776912135,0.720580086263354,1.16401398550234,0.637436230156044,1.8153075250096,1.03929820134138,1.23257192039878
33,1,69,"red","S1-15.jpg",3,2,2,1,1.76429054200025,2,0.348728916999789,1.76815962499995,0.754625511720623,1,2,NA,0.5,NA,0.5,0.5,0.868361751140748,0.882145271000125,1.32321790650019,0.441072635500062,NA,NA,-0.764897818820804
33,1,70,"yellow","S2-19.jpg",1,1,1,1,3.03800362499987,3,0.624740792000011,3.04040075000012,0.52511848496802,0,1,NA,0.5,0.5,0.8,0.8,0.762968946917776,0.776841109589008,1.40108842979446,0.638119482876685,2.05308007534238,0.998795712328724,1.51409810621681
33,1,71,"yellow","S2-19.jpg",1,1,2,0,2.09471891699968,2,0.28582679200008,2.09714712499999,0.52511848496802,0,1,NA,0.5,0.5,0.8,0.8,0.665870914013143,0.67974322472175,1.3594864494435,0.735232467556179,NA,NA,-0.0449870962288959
33,1,72,"blue","S1-15.jpg",2,2,2,1,2.19735741600016,3,0.647679250000238,2.19970104100003,0.754625511720623,0,2,NA,0.5,0.5,0.8,0.8,0.653644294632959,0.667551620050682,1.30728858926592,0.709273596303849,2.03046951098749,0.180795230430393,0.155616195590141
33,1,73,"yellow","S1-15.jpg",1,2,2,1,1.45898545799992,3,0.390319999999974,1.46143087500013,0.754625511720623,0,1,NA,0.5,0.5,0.8,0.2,0.778125577599957,0.792020677199957,1.29224426279993,0.166741195199991,NA,NA,-1.56170418624709
33,1,74,"red","S2-19.jpg",3,1,1,1,1.64004029199987,3,0.281213917000059,1.64236687499988,0.52511848496802,0,2,NA,0.5,NA,0.5,0.5,0.639337740949102,0.653236387491474,1.09799307684737,0.542047215152499,NA,NA,-1.07114412436346
33,1,75,"red","S2-19.jpg",3,1,1,1,1.95601266599988,4,0.32480595800007,1.95842966600003,0.52511848496802,0,2,NA,0.5,NA,0.5,0.5,0.901707966595689,0.915580396851008,1.4427327465531,0.513279919446777,NA,NA,-0.332293159010914
33,1,76,"red","S2-19.jpg",3,1,2,0,2.24855849999994,3,0.326709667000159,2.2512092500001,0.52511848496802,1,2,NA,0.5,NA,0.5,0.5,0.73563950925924,0.74951949999998,1.48515900925922,0.76339949074072,NA,NA,0.252210052448113
33,1,77,"blue","S2-19.jpg",2,1,1,1,1.73910916599971,3,0.351172457999837,1.74153112499971,0.52511848496802,0,2,NA,0.5,0.5,0.8,0.2,0.765208033039872,0.77912090636787,1.25215859951979,0.486950566479919,NA,NA,-0.825182871230375
33,1,78,"red","S2-19.jpg",3,1,1,1,2.016005167,3,0.254912124999919,2.0184910830003,0.52511848496802,0,2,NA,0.5,NA,0.5,0.5,0.681270711606897,0.695174195517241,1.27912051975172,0.653463743786207,1.94648774744828,0.083420903462069,-0.205606407349508
33,1,79,"blue","S1-15.jpg",2,2,1,0,1.76216704199987,3,0.513071875000151,1.76451333299974,0.754625511720623,0,2,NA,0.5,0.5,0.8,0.8,0.679891220929084,0.693766551968453,1.26265512458258,0.499511917417286,NA,NA,-0.769948221987353
33,1,80,"blue","S1-15.jpg",2,2,2,1,1.76811366599986,3,0.555716291999943,1.77085208299968,0.754625511720623,0,2,NA,0.5,0.5,0.8,0.8,0.649229236734324,0.663042624749947,1.11888442926554,0.649229236734324,NA,NA,-0.755820438001449
33,1,81,"blue","S1-15.jpg",2,2,1,0,2.81171170899961,2,0.302930500000002,2.81452037500003,0.754625511720623,0,2,NA,0.5,0.5,0.8,0.8,0.720241422994974,0.734092219591031,1.32967647322149,0.803346202571317,2.14687347238886,0.678689033206802,1.18948692158537
33,1,82,"blue","S2-19.jpg",2,1,1,1,1.9880222920001,3,0.282227582999894,1.99049525000009,0.52511848496802,0,2,NA,0.5,0.5,0.8,0.2,0.959255511524524,0.973157765314734,1.50144340934273,0.486578882657367,NA,NA,-0.264222214719695
33,1,83,"blue","S1-15.jpg",2,2,2,1,1.96542441600013,3,0.466505333999976,1.96776654099995,0.754625511720623,0,2,NA,0.5,0.5,0.8,0.8,0.678209833690186,0.692050850704271,1.30105559932403,0.63668678264793,1.95158339898604,0.0276820340281708,-0.312163409968929
33,1,84,"blue","S1-15.jpg",2,2,2,1,1.98108329100023,3,0.485809457999949,1.98317954100003,0.754625511720623,0,2,NA,0.5,0.5,0.8,0.8,1.01132223946166,1.02517596876935,1.49620276523094,0.484880525769287,NA,NA,-0.278885022320413
33,1,85,"blue","S1-15.jpg",2,2,2,1,1.96525483400001,3,0.436030833000132,1.96799437499976,0.754625511720623,0,2,NA,0.5,0.5,0.8,0.8,0.975658428226955,0.989596405773055,NA,NA,NA,NA,-0.312525256607581
33,1,86,"blue","S1-15.jpg",2,2,2,1,2.18537766700001,2,0.315422707999915,2.18784691700012,0.754625511720623,0,2,NA,0.5,0.5,0.8,0.8,0.695980148726118,0.70989975170064,1.22492506175797,0.723819354675163,1.96266401940765,0.23663325056688,0.132690845554425
33,1,87,"blue","S1-15.jpg",2,2,2,1,2.70826070800013,3,0.538848374999816,2.71063708300017,0.754625511720623,0,2,NA,0.5,0.5,0.8,0.8,0.732335803693913,0.746153460367383,1.22977144393883,0.787606430387793,2.0311955310001,0.690882833673503,1.0322838458476
33,1,88,"yellow","S2-19.jpg",1,1,1,1,1.67782120900029,3,0.864786832999926,1.68014283399998,0.52511848496802,0,1,NA,0.5,0.5,0.8,0.8,0.845843749991882,0.859710040975355,1.58075717211598,0.0970640368843143,NA,NA,-0.975634879999993
33,1,89,"blue","S1-15.jpg",2,2,1,0,3.86739083400016,1,0.927346708999721,3.32950525000024,0.754625511720623,0,2,NA,0.5,0.5,0.8,0.8,0.805706423750033,0.821820552225034,1.48249981970006,0.805706423750033,2.3043203719251,1.57918459055007,2.5263363591773
33,1,90,"blue","S1-15.jpg",2,2,2,1,2.2040473750003,2,0.494751749999978,2.20667483300031,0.754625511720623,0,2,NA,0.5,0.5,0.8,0.8,0.873301790094458,0.887163723270561,1.34460751808194,0.762406324685638,2.12087577594368,0.0970335322327176,0.16836427834442
33,1,91,"blue","S1-15.jpg",2,2,2,1,1.49978933300008,3,0.315732167000078,1.50270499999988,0.754625511720623,0,2,NA,0.5,0.5,0.8,0.8,0.638799160351886,0.652686098620405,1.1526158762871,0.347173456712981,NA,NA,-1.44603187096475
33,1,92,"yellow","S2-19.jpg",1,1,2,0,1.791145959,3,0.488257083000008,1.79378062500018,0.52511848496802,0,1,NA,0.5,0.5,0.8,0.8,0.8955729795,0.909351025338462,1.4329167672,0.3582291918,NA,NA,-0.70154592116546
33,1,93,"yellow","S2-19.jpg",1,1,1,1,1.84890183300013,3,0.506677708000097,1.85090345800018,0.52511848496802,0,1,NA,0.5,0.5,0.8,0.8,0.806288017398553,0.820189534939907,1.26503809626325,0.583863736736883,NA,NA,-0.56845822137562
33,1,94,"blue","S1-15.jpg",2,2,2,1,1.88602908300027,2,0.747495374999744,1.88837758299996,0.754625511720623,0,2,NA,0.5,0.5,0.8,0.8,0.637921601603032,0.651789462507446,1.19263603777958,0.693393045220687,NA,NA,-0.485083017298998
33,1,95,"yellow","S2-19.jpg",1,1,2,0,1.67152033399998,2,1.11604516699981,1.67354154199984,0.52511848496802,0,1,NA,0.5,0.5,0.8,0.8,0.696466805833325,0.710396141949991,1.39293361166665,0.27858672233333,NA,NA,-0.991412966598608
33,1,96,"blue","S1-15.jpg",2,2,2,1,1.58387666700037,3,0.45436429099982,1.58657425000001,0.754625511720623,1,2,NA,0.5,0.5,0.8,0.8,0.65300178376331,0.666895438736998,1.111492397895,0.472384269105374,NA,NA,-1.21727016589362
33,1,97,"blue","S1-15.jpg",2,2,2,1,1.66641933299979,3,0.329199084000265,1.66877754100005,0.754625511720623,0,2,NA,0.5,0.5,0.8,0.8,0.777662355399902,0.7915491831749,1.47200374414981,0.194415588849976,NA,NA,-1.00423006325571
33,1,98,"yellow","S2-19.jpg",1,1,2,0,2.55962008400002,2,1.38360508400001,2.56231924999975,0.52511848496802,0,1,NA,0.5,0.5,0.8,0.8,0.926997543935142,0.94083332817298,1.43892156073515,0.650281859178384,2.10303920415137,0.47041666408649,0.795566941381535
33,1,99,"red","S1-15.jpg",3,2,2,1,1.71644537500015,2,0.325215541000034,1.71878270800016,0.754625511720623,1,2,NA,0.5,NA,0.5,0.5,0.775168879032326,0.789011180443617,1.53649545665336,0.17994991834679,NA,NA,-0.880191830320477
33,1,100,"yellow","S1-15.jpg",1,2,2,1,2.09131870900001,2,0.269549583000298,2.09399262499983,0.754625511720623,0,1,NA,0.5,0.5,0.8,0.2,0.70633943151656,0.720189224291394,1.2049319714106,0.803287980940401,2.02206974512584,0.083098756649007,-0.0517997269388384
33,1,101,"yellow","S2-19.jpg",1,1,1,1,1.7158173329999,3,0.273399292000249,1.71769691700001,0.52511848496802,0,1,NA,0.5,0.5,0.8,0.8,0.650350118153188,0.664187354709639,1.7158173329999,0,NA,NA,-0.881726519978664
33,1,102,"blue","S1-15.jpg",2,2,2,1,1.82499404100008,3,0.307623333000265,1.8273978330003,0.754625511720623,0,2,NA,0.5,0.5,0.8,0.8,0.663634196727302,0.677459909159121,1.18901126913642,0.635982771863664,NA,NA,-0.623037922256973
33,1,103,"blue","S1-15.jpg",2,2,2,1,2.62294941600021,3,0.216545708000012,2.62497816600035,0.754625511720623,0,2,NA,0.5,0.5,0.8,0.8,0.638389804952432,0.652267844190528,1.17963333523819,0.652267844190528,1.84577921866681,0.791048236571492,0.898059842272533
33,1,104,"blue","S1-15.jpg",2,2,2,1,1.81659583400005,3,0.605321874999845,1.8186874590001,0.754625511720623,0,2,NA,0.5,0.5,0.8,0.8,0.721091476091623,0.734958619862616,1.17870722053438,0.637888613465666,NA,NA,-0.642380248639572
33,1,105,"blue","S1-15.jpg",2,2,2,1,2.58080337499996,3,0.33405220800023,2.58289491699998,0.754625511720623,0,2,NA,0.5,0.5,0.8,0.8,0.790891356854826,0.804766643817192,1.30427697446235,0.763140782930096,2.08129304435481,0.513385617607519,0.830129778848677
33,1,106,"blue","S1-15.jpg",2,2,2,1,1.58217554200019,3,0.369202249999944,1.58451816700017,0.754625511720623,0,2,NA,0.5,0.5,0.8,0.8,0.652300442754464,0.666179175579027,1.20744975573699,0.374725786263203,NA,NA,-1.22177657475248
33,1,107,"red","S2-19.jpg",3,1,2,0,2.00781349999988,2,0.416597417000048,2.01018920899969,0.52511848496802,0,2,NA,0.5,NA,0.5,0.5,0.664655503448236,0.678502493103408,1.1216061620689,0.886207337930981,NA,NA,-0.222680863660154
33,1,108,"yellow","S2-19.jpg",1,1,2,0,2.50857212499977,2,0.338488124999913,2.51086149999992,0.52511848496802,0,1,NA,0.5,0.5,0.8,0.8,0.637537667127013,0.651397181629775,1.53840610980649,0.873149413673953,2.4254150379832,0.0970166015193281,0.711087236487339
33,1,109,"yellow","S2-19.jpg",1,1,2,0,2.26388599999973,1,0.391777542,2.26616183399983,0.52511848496802,1,1,NA,0.5,0.5,0.8,0.8,0.694443558282126,0.708332429447768,1.3055538895704,0.708332429447768,2.02777519018381,0.249999680981565,0.280698810501539
33,1,110,"red","S2-19.jpg",3,1,2,0,2.49272291699981,2,0.304876624999906,2.49478183400015,0.52511848496802,0,2,NA,0.5,NA,0.5,0.5,0.678574571849948,0.692423032499947,1.20481607654991,0.761665335749942,1.98032987294985,0.52624150469996,0.68450821805099
33,1,111,"red","S1-15.jpg",3,2,2,1,1.98757791700064,2,0.392938500000128,1.99012545799997,0.754625511720623,0,2,NA,0.5,NA,0.5,0.5,0.662525972333547,0.676328596757162,1.14561782716009,0.634920723486316,1.79434117507002,0.207039366354233,-0.265159688888202
33,1,112,"blue","S1-15.jpg",2,2,2,1,1.57822658300029,3,1.09021462500004,1.58066650000001,0.754625511720623,0,2,NA,0.5,0.5,0.8,0.8,0.63682827033345,0.650672363166786,1.24596835500023,0.332258228000061,NA,NA,-1.23225637249235
33,1,113,"yellow","S2-19.jpg",1,1,2,0,1.88182333400073,3,0.652199667000787,1.88460325000051,0.52511848496802,0,1,NA,0.5,0.5,0.8,0.8,0.830216176765028,0.844053113044445,1.31450894654463,0.567314387456102,NA,NA,-0.49444487514503
33,1,114,"yellow","S2-19.jpg",1,1,1,1,2.00255379200007,2,0.504957707999893,2.00470366700029,0.52511848496802,0,1,NA,0.5,0.5,0.8,0.8,0.723144424888914,0.73705104844447,1.2655027435556,0.653611307111134,1.93302067422229,0.0834397413333363,-0.233680798918132
33,1,115,"red","S2-19.jpg",3,1,2,0,1.79550949999975,3,0.934941374999653,1.79810145899955,0.52511848496802,0,2,NA,0.5,NA,0.5,0.5,0.690580576922981,0.70439218846144,1.27066826153828,0.524841238461465,NA,NA,-0.691342119442101
33,1,116,"red","S2-19.jpg",3,1,2,0,1.9514572500002,3,0.892440790999899,1.95410391699988,0.52511848496802,0,2,NA,0.5,NA,0.5,0.5,0.63664562765964,0.650485750000067,1.13489003191501,0.692006117021348,1.84073627127678,0.124561101063843,-0.342071045512247
33,1,117,"yellow","S2-19.jpg",1,1,1,1,1.53636562500014,3,0.330718125000203,1.5387908749999,0.52511848496802,0,1,NA,0.5,0.5,0.8,0.8,0.788944510135207,0.802785641891965,1.25954298986498,0.27682263513516,NA,NA,-1.34498819237258
33,1,118,"blue","S1-15.jpg",2,2,2,1,1.71876820800026,3,0.559146458000214,1.72147441600009,0.754625511720623,0,2,NA,0.5,0.5,0.8,0.8,0.67073881287815,0.684712538146445,1.17379292253676,0.544975285463497,NA,NA,-0.874520607583724
33,1,119,"blue","S2-19.jpg",2,1,1,1,1.93759070800024,3,1.07857741699991,1.94027075000031,0.52511848496802,0,2,NA,0.5,0.5,0.8,0.2,0.664316814171511,0.678156747800084,1.12103462391442,0.636636946914365,1.77151150445736,0.179919137171451,-0.371975721990559
33,1,120,"yellow","S1-15.jpg",1,2,2,1,1.74879966599929,2,0.321241291000661,1.75173616599932,0.754625511720623,0,1,NA,0.5,0.5,0.8,0.2,0.832761745713948,0.846641108142513,1.47121241742797,0.277587248571316,NA,NA,-0.801880797402745
33,1,121,"yellow","S2-19.jpg",1,1,2,0,2.08609537499979,2,1.02329945899965,2.08874570799981,0.52511848496802,0,1,NA,0.5,0.5,0.8,0.8,0.649314454470133,0.663129655629072,1.14666169619194,0.815096868377401,1.97557376572828,0.124336810430451,-0.0622867661582811
33,1,122,"blue","S1-15.jpg",2,2,2,1,1.87123737500042,3,0.369780500000161,1.87309404200005,0.754625511720623,0,2,NA,0.5,0.5,0.8,0.8,1.08115937222247,1.09502038981506,1.64946109351889,0.221776281481531,NA,NA,-0.518101793175158
33,1,123,"yellow","S2-19.jpg",1,1,2,0,1.55265358300039,3,1.01868916700005,1.55538925000019,0.52511848496802,0,1,NA,0.5,0.5,0.8,0.8,0.651559985723378,0.665422964143024,1.28925699302711,0.26339658997328,NA,NA,-1.30076374118049
33,1,124,"blue","S1-15.jpg",2,2,2,1,1.93718075000015,3,0.680777582999326,1.9394094169993,0.754625511720623,0,2,NA,0.5,0.5,0.8,0.8,0.830220321428636,0.84405732678578,1.57741861071441,0.359762139285742,NA,NA,-0.372863093887929
33,1,125,"yellow","S2-19.jpg",1,1,1,1,1.52731674999995,3,0.255855833999703,1.52992291700048,0.52511848496802,0,1,NA,0.5,0.5,0.8,0.8,0.638696095454525,0.652580793181797,1.12466051590905,0.402656234090896,NA,NA,-1.36976038845638
33,1,126,"blue","S1-15.jpg",2,2,1,0,2.85603762499977,2,0.468029249999745,2.85829025000021,0.754625511720623,0,2,NA,0.5,0.5,0.8,0.8,0.762534317354307,0.77639857766984,1.56666141565521,0.707077276092176,2.28760295206292,0.58229893325238,1.25508155879255
33,1,127,"yellow","S1-15.jpg",1,2,2,1,1.8535833750002,2,0.270761708000464,1.85642766700039,0.754625511720623,0,1,NA,0.5,0.5,0.8,0.2,0.719301011194107,0.73313372294784,1.67375812220167,0.179825252798527,NA,NA,-0.557853281306391
33,1,128,"yellow","S2-19.jpg",1,1,1,1,3.86207000000013,1,0.77020391699989,3.32665791700038,0.52511848496802,0,1,NA,0.5,0.5,0.8,0.8,1.44827625000005,1.46436820833338,1.9954028333334,1.11034512500004,3.12183991666677,0.756322041666692,2.52056280862301
33,1,129,"red","S2-19.jpg",3,1,1,1,2.65737579199958,3,0.593206417000147,2.65999316699981,0.52511848496802,0,2,NA,0.5,NA,0.5,0.5,1.00173328284801,1.01564624510979,1.65564250915157,0.793038848921341,2.46259432033469,0.208694433926669,0.952742446031193
33,1,130,"yellow","S1-15.jpg",1,2,2,1,1.69519112499984,2,0.313725584000167,1.6975377079998,0.754625511720623,0,1,NA,0.5,0.5,0.8,0.2,0.792015525614679,0.80591053483599,1.25055082991791,0.444640295081925,NA,NA,-0.932443605123518
33,1,131,"red","S1-15.jpg",3,2,2,1,1.53782170900013,3,0.259427166000023,1.54011587500008,0.754625511720623,0,2,NA,0.5,NA,0.5,0.5,0.706566731162222,0.720420980792854,1.38542496306318,0.15239674593695,NA,NA,-1.34101565008863
33,1,132,"blue","S1-15.jpg",2,2,2,1,1.60689541700049,3,0.334386582999286,1.60889495900028,0.754625511720623,0,2,NA,0.5,0.5,0.8,0.8,0.678774788215724,0.692627334914004,1.13590882925897,0.470986587741523,NA,NA,-1.15676312948239
33,1,133,"yellow","S2-19.jpg",1,1,1,1,1.53638087499985,3,0.35534883299988,1.53876079200018,0.52511848496802,1,1,NA,0.5,0.5,0.8,0.8,0.747428533783711,0.761269802927854,1.45333326013499,0.0830476148648568,NA,NA,-1.34494656725262
33,1,134,"blue","S2-19.jpg",2,1,1,1,1.89950641599989,3,0.739929540999583,1.90162874999987,0.52511848496802,0,2,NA,0.5,0.5,0.8,0.2,0.679385506452515,0.693250516788281,1.13693084753278,0.693250516788281,1.84404637465683,0.0693250516788281,-0.455222944228909
33,1,135,"yellow","S1-15.jpg",1,2,2,1,1.75909395899998,3,0.597734375000073,1.76136391700038,0.754625511720623,0,1,NA,0.5,0.5,0.8,0.2,1.10809068283463,1.12194181637007,NA,NA,NA,NA,-0.777267842724287
33,1,136,"red","S1-15.jpg",3,2,2,1,1.87566887499997,3,0.625139791000038,1.8779680839998,0.754625511720623,1,2,NA,0.5,NA,0.5,0.5,0.847524454629616,0.861418298148134,1.6672612222222,0.208407652777774,NA,NA,-0.508182276211539
33,1,137,"yellow","S2-19.jpg",1,1,1,1,2.27443608300018,3,0.807144917000187,2.27679466599966,0.52511848496802,0,1,NA,0.5,0.5,0.8,0.8,0.748899685865913,0.762768198567134,1.33137721931718,0.929190350981781,2.27443608300018,0.0138685127012206,0.30019607752579
33,1,138,"blue","S2-19.jpg",2,1,1,1,1.56666800000039,3,0.402218416999858,1.56930266600011,0.52511848496802,0,2,NA,0.5,0.5,0.8,0.2,0.748673203540009,0.762537522124084,1.37256753982335,0.194100460177039,NA,NA,-1.26308206587611
33,1,139,"blue","S1-15.jpg",2,2,2,1,1.53971866599932,3,0.327809041000364,1.54191808299947,0.754625511720623,0,2,NA,0.5,0.5,0.8,0.8,0.721309645333015,0.735180984666342,1.34551991533274,0.194198750666581,NA,NA,-1.3358459401399
33,1,140,"red","S2-19.jpg",3,1,1,1,2.23497554099959,1,0.521289499999511,2.2370802079995,0.52511848496802,0,2,NA,0.5,NA,0.5,0.5,0.749619125552657,0.76350096121104,1.41594723715502,0.76350096121104,2.19333003402444,0.0555273426335302,0.226801048410235
33,1,141,"blue","S1-15.jpg",2,2,2,1,2.30541516699941,3,0.181872125000154,2.30791762499939,0.754625511720623,0,2,NA,0.5,0.5,0.8,0.8,0.638849986035981,0.652738029210676,1.11104345397562,0.666626072385372,1.79155756953569,0.527745640638419,0.356929138825224
33,1,142,"yellow","S2-19.jpg",1,1,1,1,2.42057170899989,3,0.165513749999263,2.42262112500066,0.52511848496802,0,1,NA,0.5,0.5,0.8,0.8,0.843742138565676,0.857573976902818,1.3416883187028,0.650096401845685,2.00561655888562,0.428786988451409,0.561335531095581
33,1,143,"red","S2-19.jpg",3,1,1,1,2.70598645799964,3,0.276352124999903,2.70836745799988,0.52511848496802,0,2,NA,0.5,NA,0.5,0.5,0.707719535169137,0.721596388799904,1.20728626587676,0.693842681538369,1.9150058010459,0.804857510584508,1.02876084663264
33,1,144,"yellow","S2-19.jpg",1,1,2,0,2.52053508300014,2,1.86184895800034,2.5231785420001,0.52511848496802,0,1,NA,0.5,0.5,0.8,0.8,0.650907411543992,0.66475650540663,1.13562569673633,0.734001974719821,1.88347676531879,0.650907411543992,0.731038063298866
33,1,145,"yellow","S2-19.jpg",1,1,1,1,1.60580295799991,2,0.349405042000399,1.607929625,0.52511848496802,0,1,NA,0.5,0.5,0.8,0.8,0.636783931620654,0.650627060568929,1.16282283165511,0.442980126344803,NA,NA,-1.15961511690214
33,1,146,"yellow","S1-15.jpg",1,2,2,1,1.701887833,3,1.02901708299942,1.70473350000066,0.754625511720623,0,1,NA,0.5,0.5,0.8,0.2,0.77484324104065,0.788679727487805,1.56352296852846,0.138364864471545,NA,NA,-0.915909957432693
33,1,147,"yellow","S1-15.jpg",1,2,2,1,1.41262554200057,3,0.335321624999779,1.4147820420003,0.754625511720623,0,1,NA,0.5,0.5,0.8,0.2,0.664764960941445,0.678614230961058,1.12179087158869,0.290834670411882,NA,NA,-1.69711930737214
33,1,148,"yellow","S2-19.jpg",1,1,2,0,1.64907387499989,3,1.00588283300021,1.6516889579998,0.52511848496802,1,1,NA,0.5,0.5,0.8,0.8,0.665172655462141,0.679030419117602,1.38577636554613,0.263297509453764,NA,NA,-1.04810878694546
