subID,block,trial,targetImage,targetIdx,coherence,respFrame,response,accuracy,RT,flickerDuration
 27, 1, 1, S2-19.jpg, 1, 0.83, NaN, 1, 1, 2.9465, 2.9491
 27, 1, 2, S2-19.jpg, 1, 0.63, NaN, 1, 1, 2.4136, 2.4159
 27, 1, 3, S1-15.jpg, 2, 0.83, NaN, 2, 1, 0.8012, 0.8044
 27, 1, 4, S1-15.jpg, 2, 0.63, NaN, 1, 0, 2.0029, 2.0054
 27, 1, 5, S2-19.jpg, 1, 0.80, NaN, 1, 1, 1.2345, 1.2387
 27, 1, 6, S2-19.jpg, 1, 0.60, NaN, 1, 1, 4.7812, 4.7838
 27, 1, 7, S1-15.jpg, 2, 0.80, NaN, 2, 1, 0.8653, 0.8678
 27, 1, 8, S2-19.jpg, 1, 0.56, NaN, 1, 1, 3.1330, 3.1351
 27, 1, 9, S1-15.jpg, 2, 0.76, NaN, 2, 1, 1.0993, 1.1013
 27, 1, 10, S1-15.jpg, 2, 0.71, NaN, 2, 1, 4.3342, 4.3363
 27, 1, 11, S2-19.jpg, 1, 0.76, NaN, 1, 1, 1.2299, 1.2320
 27, 1, 12, S1-15.jpg, 2, 0.69, NaN, 2, 1, 1.5622, 1.5643
 27, 1, 13, S1-15.jpg, 2, 0.73, NaN, 2, 1, 1.1779, 1.1800
 27, 1, 14, S2-19.jpg, 1, 0.53, NaN, 1, 1, 4.2411, 4.2436
 27, 1, 15, S1-15.jpg, 2, 0.70, NaN, 2, 1, 0.9467, 0.9490
 27, 1, 16, S1-15.jpg, 2, 0.67, NaN, 2, 1, 1.8674, 1.8698
 27, 1, 17, S1-15.jpg, 2, 0.68, NaN, 2, 1, 1.3231, 1.3250
 27, 1, 18, S1-15.jpg, 2, 0.65, NaN, 2, 1, 1.1582, 1.1605
 27, 1, 19, S2-19.jpg, 1, 0.73, NaN, 1, 1, 1.6902, 1.6926
 27, 1, 20, S1-15.jpg, 2, 0.63, NaN, 2, 1, 0.8881, 0.8902
 27, 1, 21, S2-19.jpg, 1, 0.70, NaN, 1, 1, 1.2190, 1.2210
 27, 1, 22, S1-15.jpg, 2, 0.60, NaN, 2, 1, 0.8399, 0.8423
 27, 1, 23, S2-19.jpg, 1, 0.68, NaN, 1, 1, 1.5837, 1.5858
 27, 1, 24, S2-19.jpg, 1, 0.50, NaN, 2, 0, 1.2312, 1.2337
 27, 1, 25, S1-15.jpg, 2, 0.66, NaN, 2, 1, 1.6507, 1.6533
 27, 1, 26, S1-15.jpg, 2, 0.58, NaN, 1, 0, 2.6987, 2.7009
 27, 1, 27, S1-15.jpg, 2, 0.64, NaN, 1, 0, 3.6292, 3.6316
 27, 1, 28, S2-19.jpg, 1, 0.56, NaN, 1, 1, 1.7696, 1.7717
 27, 1, 29, S2-19.jpg, 1, 0.66, NaN, 1, 1, 0.9366, 0.9390
 27, 1, 30, S1-15.jpg, 2, 0.63, NaN, NaN, 0, NaN, 6.3630
 27, 1, 31, S2-19.jpg, 1, 0.64, NaN, 1, 1, 1.0492, 1.0514
 27, 1, 32, S1-15.jpg, 2, 0.67, NaN, 1, 0, 1.0672, 1.0696
 27, 1, 33, S2-19.jpg, 1, 0.63, NaN, 2, 0, 1.9581, 1.9607
 27, 1, 34, S1-15.jpg, 2, 0.71, NaN, 2, 1, 0.7267, 0.7288
 27, 1, 35, S2-19.jpg, 1, 0.66, NaN, 1, 1, 2.7590, 2.7610
 27, 1, 36, S1-15.jpg, 2, 0.70, NaN, 2, 1, 1.0530, 1.0551
 27, 1, 37, S1-15.jpg, 2, 0.67, NaN, 2, 1, 1.7356, 1.7381
 27, 1, 38, S2-19.jpg, 1, 0.53, NaN, 1, 1, 0.9122, 0.9146
 27, 1, 39, S1-15.jpg, 2, 0.66, NaN, 1, 0, 0.7936, 0.7959
 27, 1, 40, S1-15.jpg, 2, 0.68, NaN, 2, 1, 1.9139, 1.9162
 27, 1, 41, S1-15.jpg, 2, 0.69, NaN, 2, 1, 0.8853, 0.8876
 27, 1, 42, S2-19.jpg, 1, 0.51, NaN, 1, 1, 2.7103, 2.7123
 27, 1, 43, S2-19.jpg, 1, 0.64, NaN, 2, 0, 1.1974, 1.1995
 27, 1, 44, S1-15.jpg, 2, 0.67, NaN, 1, 0, 1.3238, 1.3260
 27, 1, 45, S1-15.jpg, 2, 0.68, NaN, 2, 1, 2.6031, 2.6052
 27, 1, 46, S1-15.jpg, 2, 0.70, NaN, 2, 1, 0.9959, 0.9980
 27, 1, 47, S2-19.jpg, 1, 0.67, NaN, 2, 0, 0.4155, 0.4176
 27, 1, 48, S1-15.jpg, 2, 0.69, NaN, 1, 0, 1.0781, 1.0805
 27, 1, 49, S1-15.jpg, 2, 0.66, NaN, 1, 0, 1.6060, 1.6080
 27, 1, 50, S2-19.jpg, 1, 0.49, NaN, 1, 1, 1.0195, 1.0216
 27, 1, 51, S1-15.jpg, 2, 0.69, NaN, 2, 1, 0.8872, 0.8891
 27, 1, 52, S2-19.jpg, 1, 0.47, NaN, 1, 1, 0.8398, 0.8420
 27, 1, 53, S1-15.jpg, 2, 0.68, NaN, 2, 1, 1.9945, 1.9965
 27, 1, 54, S2-19.jpg, 1, 0.46, NaN, 1, 1, 1.3110, 1.3134
 27, 1, 55, S2-19.jpg, 1, 0.71, NaN, 1, 1, 0.5487, 0.5507
 27, 1, 56, S2-19.jpg, 1, 0.45, NaN, 1, 1, 2.1136, 2.1159
 27, 1, 57, S1-15.jpg, 2, 0.66, NaN, 2, 1, 0.8864, 0.8889
 27, 1, 58, S1-15.jpg, 2, 0.72, NaN, 1, 0, 3.7014, 3.7039
 27, 1, 59, S1-15.jpg, 2, 0.65, NaN, 1, 0, 1.0406, 1.0430
 27, 1, 60, S1-15.jpg, 2, 0.75, NaN, 2, 1, 2.7103, 2.7122
 27, 1, 61, S2-19.jpg, 1, 0.69, NaN, 1, 1, 1.1130, 1.1151
 27, 1, 62, S2-19.jpg, 1, 0.44, NaN, 1, 1, 0.5431, 0.5449
 27, 1, 63, S1-15.jpg, 2, 0.68, NaN, 1, 0, 4.9266, 4.9287
 27, 1, 64, S2-19.jpg, 1, 0.43, NaN, 2, 0, 1.3457, 1.3479
 27, 1, 65, S2-19.jpg, 1, 0.68, NaN, 1, 1, 0.9569, 0.9590
 27, 1, 66, S2-19.jpg, 1, 0.45, NaN, 1, 1, 0.6793, 0.6813
 27, 1, 67, S2-19.jpg, 1, 0.66, NaN, 1, 1, 0.8041, 0.8065
 27, 1, 68, S1-15.jpg, 2, 0.74, NaN, 2, 1, 0.6408, 0.6432
 27, 1, 69, S2-19.jpg, 1, 0.65, NaN, 1, 1, 1.0759, 1.0783
 27, 1, 70, S2-19.jpg, 1, 0.44, NaN, 2, 0, 4.6420, 4.6439
 27, 1, 71, S2-19.jpg, 1, 0.64, NaN, 1, 1, 1.3095, 1.3116
 27, 1, 72, S1-15.jpg, 2, 0.73, NaN, 2, 1, 2.2303, 2.2323
 27, 1, 73, S2-19.jpg, 1, 0.63, NaN, 1, 1, 1.6799, 1.6823
 27, 1, 74, S2-19.jpg, 1, 0.46, NaN, 1, 1, 0.5449, 0.5470
 27, 1, 75, S1-15.jpg, 2, 0.71, NaN, 2, 1, 0.8191, 0.8210
 27, 1, 76, S2-19.jpg, 1, 0.45, NaN, 2, 0, 0.6546, 0.6567
 27, 1, 77, S2-19.jpg, 1, 0.62, NaN, 1, 1, 0.8389, 0.8410
 27, 1, 78, S1-15.jpg, 2, 0.72, NaN, 2, 1, 1.0670, 1.0690
 27, 1, 79, S1-15.jpg, 2, 0.70, NaN, 2, 1, 0.8070, 0.8094
 27, 1, 80, S1-15.jpg, 2, 0.71, NaN, 1, 0, 1.7945, 1.7969
 27, 1, 81, S2-19.jpg, 1, 0.62, NaN, 2, 0, 0.7567, 0.7588
 27, 1, 82, S1-15.jpg, 2, 0.73, NaN, 2, 1, 0.9123, 0.9147
 27, 1, 83, S2-19.jpg, 1, 0.63, NaN, 1, 1, 0.8669, 0.8693
 27, 1, 84, S2-19.jpg, 1, 0.47, NaN, 2, 0, 0.7901, 0.7922
 27, 1, 85, S1-15.jpg, 2, 0.68, NaN, 2, 1, 0.8221, 0.8241
 27, 1, 86, S2-19.jpg, 1, 0.50, NaN, 1, 1, 0.9938, 0.9957
 27, 1, 87, S2-19.jpg, 1, 0.63, NaN, 1, 1, 1.5123, 1.5144
 27, 1, 88, S2-19.jpg, 1, 0.49, NaN, 2, 0, 1.2071, 1.2091
 27, 1, 89, S1-15.jpg, 2, 0.67, NaN, 2, 1, 1.5362, 1.5383
 27, 1, 90, S1-15.jpg, 2, 0.72, NaN, 2, 1, 0.9335, 0.9356
 27, 1, 91, S2-19.jpg, 1, 0.62, NaN, 1, 1, 1.1258, 1.1278
 27, 1, 92, S1-15.jpg, 2, 0.71, NaN, 2, 1, 0.9458, 0.9483
 27, 1, 93, S2-19.jpg, 1, 0.61, NaN, 1, 1, 1.6898, 1.6920
 27, 1, 94, S2-19.jpg, 1, 0.52, NaN, 2, 0, 1.3926, 1.3950
 27, 1, 95, S1-15.jpg, 2, 0.66, NaN, 2, 1, 1.0651, 1.0673
 27, 1, 96, S2-19.jpg, 1, 0.55, NaN, 1, 1, 1.8058, 1.8083
 27, 1, 97, S2-19.jpg, 1, 0.61, NaN, 1, 1, 0.6636, 0.6656
 27, 1, 98, S1-15.jpg, 2, 0.70, NaN, 2, 1, 0.9835, 0.9859
 27, 1, 99, S2-19.jpg, 1, 0.60, NaN, 1, 1, 0.9943, 0.9968
 27, 1, 100, S1-15.jpg, 2, 0.70, NaN, 2, 1, 0.7245, 0.7265