subID,block,trial,targetImg,targetIdx,cue_rgb,cue_string,congruent,respFrame,response,accuracy,RT,confResp,confRT,flickerDuration,noise1frames,signal1frames,noise2frames,coherence,catch_trial
 12, 1, 1, S2-19.jpg, 2, [240 168 10], orange, NaN, 241, 2, 1, 3.3300, NaN, NaN, 3.3404,89,25,87,0.7566,1
 12, 1, 2, S1-15.jpg, 1, [181 10 240], purple, 1, 232, 1, 1, 3.1873, 2, 0.9072, 3.1883,91,31,104,0.7725,0
 12, 1, 3, S2-19.jpg, 2, [10 240 94], green, 1, 177, 2, 1, 2.4846, 3, 1.1563, 2.4861,89,27,80,0.7566,0
 12, 1, 4, S2-19.jpg, 2, [10 240 94], green, 1, 150, 1, 0, 2.0945, 2, 0.7691, 2.0954,139,31,85,0.7566,0
 12, 1, 5, S1-15.jpg, 1, [240 168 10], orange, NaN, 265, 1, 1, 3.6761, 3, 1.5893, 3.6771,138,25,81,0.7725,1
 12, 1, 6, S1-15.jpg, 1, [240 168 10], orange, NaN, 208, 2, 0, 2.8794, 2, 1.3194, 2.8802,79,33,86,0.7725,1
 12, 1, 7, S1-15.jpg, 1, [10 240 94], green, 0, 202, 2, 0, 2.8291, 3, 0.5723, 2.8301,96,27,76,0.7725,0
 12, 1, 8, S2-19.jpg, 2, [10 240 94], green, 1, 237, 2, 1, 3.2849, 3, 0.7148, 3.2859,94,51,88,0.7566,0
 12, 1, 9, S1-15.jpg, 1, [10 240 94], green, 0, 255, 2, 0, 3.6147, 2, 1.2579, 3.6154,86,58,90,0.7725,0
 12, 1, 10, S2-19.jpg, 2, [10 240 94], green, 1, 222, 1, 0, 3.0759, 3, 0.9587, 3.0768,127,36,113,0.7566,1
 12, 1, 11, S2-19.jpg, 2, [10 240 94], green, 1, 170, 1, 0, 2.3739, 3, 1.4938, 2.3749,84,62,83,0.7566,0
 12, 1, 12, S2-19.jpg, 2, [10 240 94], green, 1, 204, 1, 0, 2.8419, 2, 0.7701, 2.8430,77,38,78,0.7566,0
 12, 1, 13, S2-19.jpg, 2, [10 240 94], green, 1, 220, 2, 1, 3.1492, 2, 0.7458, 3.1499,107,26,90,0.7566,0
 12, 1, 14, S2-19.jpg, 2, [10 240 94], green, 1, 214, 2, 1, 2.9741, 3, 1.1101, 2.9751,104,38,102,0.7566,0
 12, 1, 15, S1-15.jpg, 1, [181 10 240], purple, 1, 188, 1, 1, 2.6114, 2, 0.7545, 2.6124,81,53,77,0.7725,0
 12, 1, 16, S2-19.jpg, 2, [10 240 94], green, 1, 290, 2, 1, 4.0353, 3, 0.6761, 4.0361,95,81,82,0.7566,0
 12, 1, 17, S2-19.jpg, 2, [10 240 94], green, 1, 134, 2, 1, 1.8791, 3, 0.5422, 1.8801,103,31,76,0.7566,0
 12, 1, 18, S1-15.jpg, 1, [240 168 10], orange, NaN, 192, 2, 0, 2.6836, 3, 0.6158, 2.6846,103,41,76,0.7725,0
 12, 1, 19, S1-15.jpg, 1, [240 168 10], orange, NaN, 170, 1, 1, 2.3654, 2, 0.3104, 2.3661,79,24,79,0.7725,0
 12, 1, 20, S1-15.jpg, 1, [240 168 10], orange, NaN, 280, 1, 1, 3.9098, 2, 1.2857, 3.9113,110,41,89,0.7725,0
 12, 1, 21, S1-15.jpg, 1, [181 10 240], purple, 1, 143, 1, 1, 2.0488, 3, 0.6234, 2.0495,82,29,94,0.7725,0
 12, 1, 22, S1-15.jpg, 1, [181 10 240], purple, 1, 100, 1, 1, 1.4059, 3, 0.8163, 1.4068,93,26,80,0.7725,0
 12, 1, 23, S2-19.jpg, 2, [181 10 240], purple, 0, 51, 1, 0, 0.6898, 3, 0.6251, 0.6908,136,74,93,0.7566,0
 12, 1, 24, S1-15.jpg, 1, [240 168 10], orange, NaN, 168, 2, 0, 2.3645, 3, 0.6829, 2.3655,82,53,85,0.7725,0
 12, 1, 25, S1-15.jpg, 1, [240 168 10], orange, NaN, 149, 2, 0, 2.0832, 3, 1.4792, 2.0840,86,87,102,0.7725,0
 12, 1, 26, S1-15.jpg, 1, [240 168 10], orange, NaN, 188, 2, 0, 2.6559, 3, 1.3741, 2.6566,76,49,83,0.7725,0
 12, 1, 27, S1-15.jpg, 1, [181 10 240], purple, 1, 171, 1, 1, 2.4020, 3, 1.3334, 2.4028,116,35,77,0.7725,0
 12, 1, 28, S1-15.jpg, 1, [181 10 240], purple, 1, 255, 1, 1, 3.5651, 3, 0.7090, 3.5660,80,57,82,0.7725,0
 12, 1, 29, S1-15.jpg, 1, [10 240 94], green, 0, 144, 2, 0, 2.0353, 4, 1.4305, 2.0361,99,61,85,0.7725,0
 12, 1, 30, S2-19.jpg, 2, [240 168 10], orange, NaN, 265, 1, 0, 3.6781, 2, 0.4161, 3.6791,90,91,86,0.7566,1
 12, 1, 31, S1-15.jpg, 1, [181 10 240], purple, 1, 141, 1, 1, 1.9634, 3, 0.5593, 1.9643,128,44,95,0.7725,0
 12, 1, 32, S2-19.jpg, 2, [181 10 240], purple, 0, 178, 2, 1, 2.5138, 2, 1.5205, 2.5147,78,143,99,0.7566,0
 12, 1, 33, S2-19.jpg, 2, [10 240 94], green, 1, 176, 2, 1, 2.4410, 3, 0.5811, 2.4420,95,24,83,0.7566,0
 12, 1, 34, S2-19.jpg, 2, [10 240 94], green, 1, 259, 2, 1, 3.6041, 3, 0.4652, 3.6049,94,62,85,0.7566,0
 12, 1, 35, S1-15.jpg, 1, [181 10 240], purple, 1, NaN, 2, 0, 7.8490, 1, 1.7195, 7.4651,87,23,85,0.7725,1
 12, 1, 36, S1-15.jpg, 1, [181 10 240], purple, 1, 212, 1, 1, 2.9476, 2, 1.8596, 2.9490,91,27,112,0.7725,0
 12, 1, 37, S2-19.jpg, 2, [181 10 240], purple, 0, 169, 1, 0, 2.3603, 3, 0.4031, 2.3613,120,26,89,0.7566,0
 12, 1, 38, S1-15.jpg, 1, [181 10 240], purple, 1, 284, 2, 0, 3.9458, 2, 1.3652, 3.9473,84,33,108,0.7725,1
 12, 1, 39, S1-15.jpg, 1, [240 168 10], orange, NaN, 254, 1, 1, 3.5178, 2, 2.6018, 3.5186,76,32,102,0.7725,0
 12, 1, 40, S2-19.jpg, 2, [10 240 94], green, 1, 290, 2, 1, 4.0139, 1, 1.9562, 4.0147,78,28,79,0.7566,0
 12, 1, 41, S1-15.jpg, 1, [240 168 10], orange, NaN, 266, 2, 0, 3.6929, 3, 1.1852, 3.6939,102,37,106,0.7725,0
 12, 1, 42, S2-19.jpg, 2, [10 240 94], green, 1, 315, 2, 1, 4.3429, 3, 0.4705, 4.3438,76,27,94,0.7566,1
 12, 1, 43, S1-15.jpg, 1, [181 10 240], purple, 1, 220, 1, 1, 3.0686, 2, 1.1491, 3.0701,141,54,84,0.7725,0
 12, 1, 44, S1-15.jpg, 1, [181 10 240], purple, 1, 157, 2, 0, 2.1934, 2, 0.9166, 2.1948,112,27,96,0.7725,0
 12, 1, 45, S1-15.jpg, 1, [181 10 240], purple, 1, 512, 1, 1, 7.0839, 2, 0.7944, 7.0848,89,40,123,0.7725,0
 12, 1, 46, S2-19.jpg, 2, [10 240 94], green, 1, 433, 2, 1, 6.0199, 3, 0.9170, 6.0207,82,35,79,0.7566,0
 12, 1, 47, S1-15.jpg, 1, [240 168 10], orange, NaN, 368, 1, 1, 5.0965, 3, 1.1011, 5.0975,75,28,103,0.7725,0
 12, 1, 48, S2-19.jpg, 2, [10 240 94], green, 1, 226, 2, 1, 3.1646, 3, 0.9108, 3.1656,76,30,80,0.7566,0
 12, 1, 49, S2-19.jpg, 2, [10 240 94], green, 1, 288, 2, 1, 3.9843, 4, 0.9658, 3.9853,106,64,100,0.7566,0
 12, 1, 50, S1-15.jpg, 1, [181 10 240], purple, 1, 385, 1, 1, 5.3285, 4, 1.2780, 5.3300,81,31,78,0.7725,0
 12, 1, 51, S2-19.jpg, 2, [10 240 94], green, 1, 375, 1, 0, 5.2139, 3, 1.3095, 5.2150,116,36,97,0.7566,0
 12, 1, 52, S1-15.jpg, 1, [240 168 10], orange, NaN, 410, 2, 0, 5.6696, 2, 1.3153, 5.6706,105,29,134,0.7725,0
 12, 1, 53, S1-15.jpg, 1, [10 240 94], green, 0, 468, 1, 1, 6.4953, 3, 1.4732, 6.4963,81,55,108,0.7725,0
 12, 1, 54, S1-15.jpg, 1, [181 10 240], purple, 1, 430, 2, 0, 6.0474, 3, 0.9639, 6.0481,86,35,95,0.7725,0
 12, 1, 55, S1-15.jpg, 1, [10 240 94], green, 0, 325, 2, 0, 4.5734, 3, 0.6541, 4.5742,90,43,80,0.7725,0
 12, 1, 56, S1-15.jpg, 1, [240 168 10], orange, NaN, 342, 2, 0, 4.8114, 1, 1.7875, 4.8122,84,25,120,0.7725,0
 12, 1, 57, S1-15.jpg, 1, [240 168 10], orange, NaN, 92, 1, 1, 1.2914, 2, 1.2716, 1.2923,76,24,78,0.7725,0
 12, 1, 58, S2-19.jpg, 2, [10 240 94], green, 1, 141, 2, 1, 1.9779, 2, 1.5427, 1.9786,78,56,86,0.7566,0
 12, 1, 59, S1-15.jpg, 1, [240 168 10], orange, NaN, 170, 1, 1, 2.3504, 3, 0.4137, 2.3513,83,33,97,0.7725,0
 12, 1, 60, S2-19.jpg, 2, [181 10 240], purple, 0, 165, 2, 1, 2.3104, 3, 0.3134, 2.3114,118,30,93,0.7566,0
 12, 1, 61, S2-19.jpg, 2, [10 240 94], green, 1, 143, 2, 1, 2.0225, 3, 1.2793, 2.0237,82,37,84,0.7566,0
 12, 1, 62, S1-15.jpg, 1, [240 168 10], orange, NaN, 213, 2, 0, 2.9608, 3, 0.6516, 2.9622,106,48,77,0.7725,0
 12, 1, 63, S1-15.jpg, 1, [181 10 240], purple, 1, 272, 2, 0, 3.7641, 3, 0.8674, 3.7651,80,23,128,0.7725,0
 12, 1, 64, S1-15.jpg, 1, [10 240 94], green, 0, 342, 2, 0, 4.7632, 3, 0.6774, 4.7641,79,47,91,0.7725,0
 12, 1, 65, S1-15.jpg, 1, [181 10 240], purple, 1, 141, 1, 1, 1.9648, 3, 0.5617, 1.9658,109,45,91,0.7725,0
 12, 1, 66, S1-15.jpg, 1, [181 10 240], purple, 1, 108, 1, 1, 1.5375, 3, 0.6001, 1.5384,80,39,77,0.7725,0
 12, 1, 67, S1-15.jpg, 1, [181 10 240], purple, 1, 323, 1, 1, 4.4811, 3, 0.9889, 4.4826,118,30,83,0.7725,0
 12, 1, 68, S1-15.jpg, 1, [181 10 240], purple, 1, 404, 2, 0, 5.6112, 3, 0.6502, 5.6123,85,28,91,0.7725,0
 12, 1, 69, S2-19.jpg, 2, [10 240 94], green, 1, 198, 2, 1, 2.7443, 3, 0.3641, 2.7451,78,28,80,0.7566,0
 12, 1, 70, S2-19.jpg, 2, [10 240 94], green, 1, 209, 1, 0, 2.9159, 3, 0.7283, 2.9168,113,61,87,0.7566,0
 12, 1, 71, S2-19.jpg, 2, [10 240 94], green, 1, 311, 1, 0, 4.3412, 3, 0.9787, 4.3421,114,25,79,0.7566,0
 12, 1, 72, S1-15.jpg, 1, [10 240 94], green, 0, NaN, NaN, 0, NaN, 2, 0.1600, 7.4629,100,44,117,0.7725,0
 12, 1, 73, S1-15.jpg, 1, [10 240 94], green, 0, 205, 2, 0, 2.8546, 1, 1.9669, 2.8555,96,75,82,0.7725,1
 12, 1, 74, S1-15.jpg, 1, [240 168 10], orange, NaN, 254, 1, 1, 3.5534, 2, 0.8439, 3.5543,106,25,87,0.7725,0
 12, 1, 75, S2-19.jpg, 2, [10 240 94], green, 1, 265, 2, 1, 3.6902, 3, 0.3556, 3.6915,131,88,76,0.7566,0
 12, 1, 76, S2-19.jpg, 2, [10 240 94], green, 1, 291, 2, 1, 4.0727, 3, 0.7735, 4.0736,87,34,89,0.7566,0
 12, 1, 77, S2-19.jpg, 2, [181 10 240], purple, 0, 367, 1, 0, 5.1230, 3, 2.1331, 5.1243,101,47,86,0.7566,1
 12, 1, 78, S2-19.jpg, 2, [10 240 94], green, 1, 422, 1, 0, 5.8545, 2, 0.9922, 5.8554,93,25,81,0.7566,0
 12, 1, 79, S1-15.jpg, 1, [181 10 240], purple, 1, 176, 2, 0, 2.4630, 1, 1.3111, 2.4640,107,36,90,0.7725,0
 12, 1, 80, S2-19.jpg, 2, [10 240 94], green, 1, 449, 2, 1, 6.2093, 3, 0.9145, 6.2103,102,31,125,0.7566,1
 12, 1, 81, S1-15.jpg, 1, [240 168 10], orange, NaN, 319, 1, 1, 4.4221, 3, 0.6018, 4.4231,94,40,95,0.7725,0
 12, 1, 82, S2-19.jpg, 2, [10 240 94], green, 1, 302, 2, 1, 4.1994, 3, 0.6918, 4.2002,80,41,79,0.7566,0
 12, 1, 83, S1-15.jpg, 1, [240 168 10], orange, NaN, 405, 2, 0, 5.6571, 3, 0.6247, 5.6580,78,26,131,0.7725,0
 12, 1, 84, S1-15.jpg, 1, [181 10 240], purple, 1, 338, 1, 1, 4.6998, 2, 0.9658, 4.7009,195,35,108,0.7725,0
 12, 1, 85, S2-19.jpg, 2, [10 240 94], green, 1, 369, 1, 0, 5.1286, 3, 2.4456, 5.1300,83,45,77,0.7566,0
 12, 1, 86, S1-15.jpg, 1, [10 240 94], green, 0, 228, 2, 0, 3.1749, 3, 0.6081, 3.1756,115,57,88,0.7725,0
 12, 1, 87, S2-19.jpg, 2, [10 240 94], green, 1, 264, 2, 1, 3.6776, 1, 1.4363, 3.6783,77,32,133,0.7566,0
 12, 1, 88, S1-15.jpg, 1, [181 10 240], purple, 1, 207, 1, 1, 2.8956, 2, 0.8195, 2.8963,79,35,136,0.7725,0
 12, 1, 89, S2-19.jpg, 2, [10 240 94], green, 1, NaN, 2, 1, 7.7580, 1, 0.6740, 7.4941,86,23,105,0.7566,0
 12, 1, 90, S1-15.jpg, 1, [181 10 240], purple, 1, 223, 1, 1, 3.1176, 3, 1.0039, 3.1184,130,26,90,0.7725,0
 12, 1, 91, S1-15.jpg, 1, [240 168 10], orange, NaN, 284, 1, 1, 3.9419, 3, 1.0939, 3.9428,93,28,94,0.7725,0
 12, 1, 92, S1-15.jpg, 1, [181 10 240], purple, 1, 260, 1, 1, 3.5999, 3, 0.5490, 3.6007,84,63,75,0.7725,0
 12, 1, 93, S1-15.jpg, 1, [181 10 240], purple, 1, 423, 2, 0, 5.8811, 3, 0.3274, 5.8821,86,33,142,0.7725,0
 12, 1, 94, S1-15.jpg, 1, [181 10 240], purple, 1, 358, 1, 1, 4.9703, 3, 0.7271, 4.9712,81,40,87,0.7725,0
 12, 1, 95, S1-15.jpg, 1, [10 240 94], green, 0, 277, 2, 0, 3.8719, 3, 0.8835, 3.8728,78,40,93,0.7725,0
 12, 1, 96, S1-15.jpg, 1, [181 10 240], purple, 1, 243, 2, 0, 3.4032, NaN, NaN, 3.4042,82,64,78,0.7725,0
 12, 1, 97, S1-15.jpg, 1, [10 240 94], green, 0, 375, 2, 0, 5.2596, 3, 0.9185, 5.2611,107,24,92,0.7725,0
 12, 1, 98, S1-15.jpg, 1, [240 168 10], orange, NaN, 404, 2, 0, 5.6119, 3, 0.7823, 5.6126,99,39,83,0.7725,0
 12, 1, 99, S2-19.jpg, 2, [10 240 94], green, 1, 356, 2, 1, 4.9085, 3, 1.4696, 4.9093,78,25,103,0.7566,0
 12, 1, 100, S1-15.jpg, 1, [10 240 94], green, 0, 344, 2, 0, 4.7522, 3, 2.5980, 4.7537,81,32,100,0.7725,0
 12, 1, 101, S2-19.jpg, 2, [10 240 94], green, 1, 308, 2, 1, 4.2411, NaN, NaN, 4.2425,85,32,78,0.7566,0
 12, 1, 102, S2-19.jpg, 2, [181 10 240], purple, 0, 423, 2, 1, 5.8897, 3, 0.8918, 5.8906,108,68,80,0.7566,0
 12, 1, 103, S2-19.jpg, 2, [10 240 94], green, 1, 352, 2, 1, 4.8952, 3, 0.5179, 4.8960,80,39,127,0.7566,0
 12, 1, 104, S1-15.jpg, 1, [10 240 94], green, 0, 305, 2, 0, 4.2254, 3, 0.5179, 4.2261,95,50,83,0.7725,0
 12, 1, 105, S1-15.jpg, 1, [181 10 240], purple, 1, 410, 1, 1, 5.6845, 3, 0.5627, 5.6855,79,59,90,0.7725,0
 12, 1, 106, S2-19.jpg, 2, [10 240 94], green, 1, 318, 2, 1, 4.4155, 3, 0.7779, 4.4165,76,28,124,0.7566,0
 12, 1, 107, S1-15.jpg, 1, [240 168 10], orange, NaN, 261, 1, 1, 3.6299, 3, 0.4714, 3.6308,87,52,115,0.7725,0
 12, 1, 108, S2-19.jpg, 2, [10 240 94], green, 1, 215, 2, 1, 3.0117, 3, 0.3664, 3.0124,110,34,77,0.7566,0
 12, 1, 109, S1-15.jpg, 1, [181 10 240], purple, 1, 291, 1, 1, 4.0921, 3, 0.5358, 4.0928,85,53,79,0.7725,0
 12, 1, 110, S2-19.jpg, 2, [10 240 94], green, 1, 194, 1, 0, 2.7164, 3, 0.3644, 2.7173,142,40,94,0.7566,0
 12, 1, 111, S2-19.jpg, 2, [10 240 94], green, 1, 342, 2, 1, 4.7865, 1, 1.4198, 4.7875,87,56,98,0.7566,0
 12, 1, 112, S1-15.jpg, 1, [240 168 10], orange, NaN, 183, 1, 1, 2.5543, 3, 0.9393, 2.5552,123,72,99,0.7725,0
 12, 1, 113, S2-19.jpg, 2, [181 10 240], purple, 0, 197, 2, 1, 2.7421, 3, 1.3217, 2.7430,83,29,98,0.7566,0
 12, 1, 114, S1-15.jpg, 1, [181 10 240], purple, 1, 190, 2, 0, 2.6587, 3, 0.4040, 2.6594,94,33,82,0.7725,0
 12, 1, 115, S1-15.jpg, 1, [181 10 240], purple, 1, 160, 1, 1, 2.2384, 3, 0.9305, 2.2394,92,65,76,0.7725,0
 12, 1, 116, S1-15.jpg, 1, [181 10 240], purple, 1, 180, 2, 0, 2.4850, 3, 1.4412, 2.4863,100,55,77,0.7725,0
 12, 1, 117, S1-15.jpg, 1, [181 10 240], purple, 1, 161, 1, 1, 2.2731, 4, 1.1099, 2.2740,89,29,87,0.7725,0
 12, 1, 118, S2-19.jpg, 2, [181 10 240], purple, 0, 169, 2, 1, 2.3475, 4, 0.7892, 2.3483,77,24,91,0.7566,0
 12, 1, 119, S2-19.jpg, 2, [10 240 94], green, 1, 153, 2, 1, 2.1446, 4, 0.7878, 2.1453,140,42,88,0.7566,0
 12, 1, 120, S2-19.jpg, 2, [10 240 94], green, 1, 118, 2, 1, 1.6777, 2, 1.0852, 1.6784,84,76,113,0.7566,1
 12, 1, 121, S1-15.jpg, 1, [181 10 240], purple, 1, 184, 1, 1, 2.5839, 2, 1.4764, 2.5846,81,24,91,0.7725,0
 12, 1, 122, S1-15.jpg, 1, [240 168 10], orange, NaN, 175, 1, 1, 2.4286, 2, 0.8222, 2.4296,100,43,100,0.7725,0
 12, 1, 123, S1-15.jpg, 1, [10 240 94], green, 0, 155, 1, 1, 2.2061, 2, 1.4876, 2.2070,96,38,132,0.7725,0
 12, 1, 124, S1-15.jpg, 1, [10 240 94], green, 0, 140, 2, 0, 1.9553, 3, 1.7235, 1.9563,120,66,99,0.7725,0
 12, 1, 125, S2-19.jpg, 2, [10 240 94], green, 1, 211, 1, 0, 2.9366, 2, 2.7449, 2.9375,119,29,81,0.7566,0
 12, 1, 126, S1-15.jpg, 1, [10 240 94], green, 0, 274, 2, 0, 3.8031, 3, 0.8754, 3.8042,82,25,143,0.7725,0
 12, 1, 127, S1-15.jpg, 1, [181 10 240], purple, 1, 143, 1, 1, 2.0203, 3, 0.6768, 2.0210,76,30,78,0.7725,0
 12, 1, 128, S1-15.jpg, 1, [10 240 94], green, 0, 222, 2, 0, 3.1127, 3, 0.5348, 3.1134,79,32,87,0.7725,1
 12, 1, 129, S2-19.jpg, 2, [181 10 240], purple, 0, 217, 2, 1, 3.0307, 3, 1.0352, 3.0315,96,73,88,0.7566,0
 12, 1, 130, S2-19.jpg, 2, [10 240 94], green, 1, 263, 2, 1, 3.6854, 3, 1.9034, 3.6864,81,35,120,0.7566,0
 12, 1, 131, S1-15.jpg, 1, [181 10 240], purple, 1, 277, 2, 0, 3.8572, 3, 2.0685, 3.8582,108,35,138,0.7725,0
 12, 1, 132, S1-15.jpg, 1, [240 168 10], orange, NaN, 188, 2, 0, 2.6256, 2, 1.2039, 2.6267,88,67,95,0.7725,0
 12, 1, 133, S1-15.jpg, 1, [181 10 240], purple, 1, 319, 2, 0, 4.4214, 3, 1.0647, 4.4226,77,36,110,0.7725,0
 12, 1, 134, S2-19.jpg, 2, [10 240 94], green, 1, 266, 2, 1, 3.6888, 3, 0.8028, 3.6895,87,37,85,0.7566,0
 12, 1, 135, S1-15.jpg, 1, [181 10 240], purple, 1, 211, 1, 1, 2.9372, 3, 0.9224, 2.9380,109,40,101,0.7725,0
 12, 1, 136, S1-15.jpg, 1, [181 10 240], purple, 1, 210, 1, 1, 2.9200, 3, 0.8063, 2.9208,76,28,82,0.7725,0
 12, 1, 137, S2-19.jpg, 2, [181 10 240], purple, 0, 200, 1, 0, 2.8150, 3, 0.4622, 2.8158,77,57,114,0.7566,0
 12, 1, 138, S2-19.jpg, 2, [10 240 94], green, 1, 305, 2, 1, 4.2359, 2, 0.8612, 4.2374,78,37,80,0.7566,1
 12, 1, 139, S2-19.jpg, 2, [10 240 94], green, 1, 142, 2, 1, 1.9860, 3, 0.6415, 1.9871,82,80,92,0.7566,0
 12, 1, 140, S2-19.jpg, 2, [10 240 94], green, 1, 151, 2, 1, 2.1249, 3, 0.5494, 2.1259,129,56,83,0.7566,0
 12, 1, 141, S1-15.jpg, 1, [240 168 10], orange, NaN, 272, 1, 1, 3.7900, 3, 0.8289, 3.7908,93,42,139,0.7725,0
 12, 1, 142, S1-15.jpg, 1, [240 168 10], orange, NaN, 159, 2, 0, 2.2143, 3, 0.4571, 2.2156,77,25,84,0.7725,0
 12, 1, 143, S2-19.jpg, 2, [181 10 240], purple, 0, 251, 2, 1, 3.5324, 3, 0.2666, 3.5332,86,31,77,0.7566,0
 12, 1, 144, S2-19.jpg, 2, [10 240 94], green, 1, 144, 2, 1, 2.0306, 3, 0.2682, 2.0316,75,30,96,0.7566,0
 12, 1, 145, S2-19.jpg, 2, [240 168 10], orange, NaN, 183, 1, 0, 2.5652, 3, 0.7970, 2.5667,81,143,141,0.7566,0
 12, 1, 146, S2-19.jpg, 2, [10 240 94], green, 1, 153, 1, 0, 2.1473, 3, 0.3242, 2.1480,112,58,95,0.7566,1
 12, 1, 147, S2-19.jpg, 2, [10 240 94], green, 1, 193, 1, 0, 2.6930, 3, 0.4113, 2.6940,75,25,135,0.7566,0
 12, 1, 148, S1-15.jpg, 1, [181 10 240], purple, 1, 140, 1, 1, 1.9673, 3, 0.3221, 1.9683,87,28,78,0.7725,1
 12, 1, 149, S2-19.jpg, 2, [10 240 94], green, 1, 112, 2, 1, 1.5730, 3, 0.6405, 1.5740,93,29,101,0.7566,0
 12, 1, 150, S1-15.jpg, 1, [181 10 240], purple, 1, 151, 2, 0, 2.1261, 3, 0.3668, 2.1268,77,51,81,0.7725,0
 12, 1, 151, S2-19.jpg, 2, [10 240 94], green, 1, 129, 2, 1, 1.8214, 3, 0.3043, 1.8224,77,26,84,0.7566,0
 12, 1, 152, S2-19.jpg, 2, [240 168 10], orange, NaN, 151, 2, 1, 2.1278, 3, 0.3401, 2.1287,117,25,97,0.7566,0
 12, 1, 153, S1-15.jpg, 1, [181 10 240], purple, 1, 154, 2, 0, 2.1585, 2, 0.8831, 2.1597,76,50,86,0.7725,0
 12, 1, 154, S1-15.jpg, 1, [181 10 240], purple, 1, 169, 2, 0, 2.3445, 3, 0.2927, 2.3455,77,68,106,0.7725,0
 12, 1, 155, S1-15.jpg, 1, [181 10 240], purple, 1, 150, 1, 1, 2.1407, 2, 0.4057, 2.1415,97,42,103,0.7725,0
 12, 1, 156, S1-15.jpg, 1, [181 10 240], purple, 1, 183, 1, 1, 2.5711, 3, 0.3357, 2.5718,104,67,77,0.7725,0
 12, 1, 157, S1-15.jpg, 1, [181 10 240], purple, 1, 148, 2, 0, 2.0790, 3, 0.3023, 2.0799,78,43,79,0.7725,0
 12, 1, 158, S1-15.jpg, 1, [181 10 240], purple, 1, 168, 2, 0, 2.3566, 3, 0.8846, 2.3573,98,33,111,0.7725,0
 12, 1, 159, S1-15.jpg, 1, [181 10 240], purple, 1, 329, 2, 0, 4.5793, 3, 0.4631, 4.5802,88,29,78,0.7725,0
 12, 1, 160, S1-15.jpg, 1, [181 10 240], purple, 1, 157, 2, 0, 2.1944, 3, 1.3902, 2.1954,90,55,107,0.7725,0
 12, 1, 161, S2-19.jpg, 2, [10 240 94], green, 1, 254, 2, 1, 3.5429, 2, 1.0137, 3.5436,104,26,75,0.7566,0
 12, 1, 162, S1-15.jpg, 1, [181 10 240], purple, 1, 303, 2, 0, 4.2428, 2, 1.4051, 4.2436,82,69,100,0.7725,0
 12, 1, 163, S2-19.jpg, 2, [240 168 10], orange, NaN, 125, 1, 0, 1.7818, 4, 1.0540, 1.7825,75,60,99,0.7566,1
 12, 1, 164, S2-19.jpg, 2, [10 240 94], green, 1, 140, 2, 1, 1.9519, 3, 0.4135, 1.9532,79,32,79,0.7566,0
 12, 1, 165, S1-15.jpg, 1, [181 10 240], purple, 1, 422, 1, 1, 5.8867, 3, 1.6128, 5.8875,133,34,105,0.7725,0
 12, 1, 166, S2-19.jpg, 2, [10 240 94], green, 1, 293, 2, 1, 4.1283, 3, 0.6610, 4.1291,88,23,89,0.7566,0
 12, 1, 167, S2-19.jpg, 2, [240 168 10], orange, NaN, 273, 1, 0, 3.8334, 3, 0.5966, 3.8346,79,86,107,0.7566,0
 12, 1, 168, S2-19.jpg, 2, [240 168 10], orange, NaN, 292, 2, 1, 4.0736, 3, 0.8143, 4.0751,77,29,81,0.7566,0
 12, 1, 169, S1-15.jpg, 1, [181 10 240], purple, 1, 175, 1, 1, 2.4236, 3, 0.9389, 2.4246,78,78,81,0.7725,0
 12, 1, 170, S2-19.jpg, 2, [240 168 10], orange, NaN, 249, 2, 1, 3.4487, 3, 0.6607, 3.4494,117,48,75,0.7566,0
 12, 1, 171, S1-15.jpg, 1, [181 10 240], purple, 1, 360, 1, 1, 5.0340, NaN, NaN, 5.0349,76,54,126,0.7725,1
 12, 1, 172, S2-19.jpg, 2, [181 10 240], purple, 0, 157, 1, 0, 2.1667, 3, 0.4220, 2.1682,98,34,90,0.7566,0
 12, 1, 173, S2-19.jpg, 2, [10 240 94], green, 1, 260, 2, 1, 3.6223, 4, 0.6509, 3.6234,137,44,103,0.7566,0
 12, 1, 174, S2-19.jpg, 2, [10 240 94], green, 1, 163, 2, 1, 2.2878, 4, 0.5376, 2.2886,97,34,94,0.7566,0
 12, 1, 175, S1-15.jpg, 1, [181 10 240], purple, 1, 409, 1, 1, 5.6758, 2, 0.5939, 5.6768,86,27,75,0.7725,0
 12, 1, 176, S2-19.jpg, 2, [240 168 10], orange, NaN, 289, 1, 0, 3.9838, 3, 0.3533, 3.9849,82,26,117,0.7566,0
 12, 1, 177, S2-19.jpg, 2, [240 168 10], orange, NaN, 150, 2, 1, 2.1318, 4, 0.4532, 2.1325,87,38,84,0.7566,0
 12, 1, 178, S2-19.jpg, 2, [240 168 10], orange, NaN, 269, 2, 1, 3.7760, 3, 0.6949, 3.7768,79,48,101,0.7566,0
 12, 1, 179, S2-19.jpg, 2, [10 240 94], green, 1, 263, 2, 1, 3.6628, 3, 0.5151, 3.6641,90,31,80,0.7566,0
 12, 1, 180, S1-15.jpg, 1, [181 10 240], purple, 1, 140, 1, 1, 1.9736, 3, 0.2847, 1.9744,134,37,102,0.7725,0
 12, 1, 181, S2-19.jpg, 2, [181 10 240], purple, 0, 230, 2, 1, 3.2283, 3, 1.3020, 3.2290,84,26,107,0.7566,0
 12, 1, 182, S2-19.jpg, 2, [240 168 10], orange, NaN, 164, 2, 1, 2.2804, 3, 0.2431, 2.2813,96,37,129,0.7566,0
 12, 1, 183, S2-19.jpg, 2, [181 10 240], purple, 0, 355, 1, 0, 4.9458, 2, 0.6770, 4.9465,80,36,79,0.7566,0
 12, 1, 184, S2-19.jpg, 2, [10 240 94], green, 1, 389, 2, 1, 5.3626, 3, 0.5090, 5.3636,105,47,90,0.7566,0
 12, 1, 185, S1-15.jpg, 1, [181 10 240], purple, 1, 259, 1, 1, 3.6036, 3, 0.6310, 3.6046,84,35,82,0.7725,0
 12, 1, 186, S1-15.jpg, 1, [181 10 240], purple, 1, 309, 1, 1, 4.3036, 3, 1.0298, 4.3051,89,59,96,0.7725,0
 12, 1, 187, S2-19.jpg, 2, [10 240 94], green, 1, 243, 2, 1, 3.3853, 4, 1.4129, 3.3862,95,89,91,0.7566,0
 12, 1, 188, S1-15.jpg, 1, [181 10 240], purple, 1, 504, 1, 1, 6.9796, 3, 1.1446, 6.9806,90,31,84,0.7725,0
 12, 1, 189, S1-15.jpg, 1, [181 10 240], purple, 1, 189, 1, 1, 2.6646, 4, 0.3459, 2.6656,91,28,86,0.7725,0
 12, 1, 190, S1-15.jpg, 1, [181 10 240], purple, 1, 137, 1, 1, 1.9343, 4, 0.3819, 1.9350,98,79,111,0.7725,0
 12, 1, 191, S2-19.jpg, 2, [240 168 10], orange, NaN, 244, 2, 1, 3.3969, 3, 0.7736, 3.3978,75,34,79,0.7566,0
 12, 1, 192, S2-19.jpg, 2, [181 10 240], purple, 0, 363, 2, 1, 5.0548, 3, 0.3677, 5.0558,80,47,104,0.7566,0
 12, 1, 193, S1-15.jpg, 1, [181 10 240], purple, 1, 321, 2, 0, 4.4690, 3, 0.5886, 4.4700,126,26,81,0.7725,0
 12, 1, 194, S1-15.jpg, 1, [10 240 94], green, 0, 273, 1, 1, 3.7991, 3, 1.0224, 3.7999,85,24,89,0.7725,0
 12, 1, 195, S1-15.jpg, 1, [181 10 240], purple, 1, 251, 1, 1, 3.5242, 3, 0.4701, 3.5250,132,50,76,0.7725,0
 12, 1, 196, S2-19.jpg, 2, [10 240 94], green, 1, NaN, 2, 1, 7.7537, 3, 2.6938, 7.4669,105,33,81,0.7566,0
 12, 1, 197, S2-19.jpg, 2, [181 10 240], purple, 0, 176, 1, 0, 2.4327, 3, 0.2672, 2.4337,88,34,87,0.7566,0
 12, 1, 198, S2-19.jpg, 2, [10 240 94], green, 1, 139, 1, 0, 1.9458, 3, 0.3298, 1.9467,143,31,109,0.7566,0
 12, 1, 199, S1-15.jpg, 1, [240 168 10], orange, NaN, 251, 2, 0, 3.5111, 2, 0.7742, 3.5126,85,26,83,0.7725,1
 12, 1, 200, S2-19.jpg, 2, [181 10 240], purple, 0, 284, 2, 1, 3.9574, 3, 0.3043, 3.9582,98,84,76,0.7566,0
 12, 1, 201, S1-15.jpg, 1, [181 10 240], purple, 1, 257, 2, 0, 3.6188, 3, 0.6686, 3.6195,109,25,92,0.7725,1
 12, 1, 202, S2-19.jpg, 2, [240 168 10], orange, NaN, 447, 2, 1, 6.2210, 3, 0.4449, 6.2219,103,27,77,0.7566,0
 12, 1, 203, S2-19.jpg, 2, [10 240 94], green, 1, 397, 1, 0, 5.5142, 2, 1.1302, 5.5149,89,44,75,0.7566,0
 12, 1, 204, S2-19.jpg, 2, [240 168 10], orange, NaN, 342, 2, 1, 4.7478, 2, 2.7348, 4.7485,115,58,78,0.7566,0
 12, 1, 205, S1-15.jpg, 1, [181 10 240], purple, 1, 337, 1, 1, 4.6932, 3, 2.2421, 4.6942,103,49,82,0.7725,0
 12, 1, 206, S1-15.jpg, 1, [181 10 240], purple, 1, 484, 1, 1, 6.7041, 3, 1.6857, 6.7048,92,63,85,0.7725,1
 12, 1, 207, S2-19.jpg, 2, [10 240 94], green, 1, 426, 2, 1, 5.9161, 3, 1.5391, 5.9172,87,51,86,0.7566,0
 12, 1, 208, S2-19.jpg, 2, [240 168 10], orange, NaN, 298, 2, 1, 4.1523, 3, 2.1062, 4.1533,94,27,80,0.7566,0
 12, 1, 209, S2-19.jpg, 2, [240 168 10], orange, NaN, 338, 2, 1, 4.6882, 3, 0.7012, 4.6890,83,83,114,0.7566,0
 12, 1, 210, S2-19.jpg, 2, [10 240 94], green, 1, NaN, NaN, 0, NaN, 2, 0.8596, 7.5277,95,85,82,0.7566,0
 12, 1, 211, S2-19.jpg, 2, [10 240 94], green, 1, 494, 2, 1, 6.9541, 4, 1.1423, 6.9549,80,41,85,0.7566,0
 12, 1, 212, S2-19.jpg, 2, [10 240 94], green, 1, 228, 2, 1, 3.2146, 2, 0.9788, 3.2156,89,29,84,0.7566,0
 12, 1, 213, S2-19.jpg, 2, [10 240 94], green, 1, 272, 2, 1, 3.8092, 4, 0.2531, 3.8102,79,27,195,0.7566,0
 12, 1, 214, S1-15.jpg, 1, [181 10 240], purple, 1, 223, 1, 1, 3.1123, 3, 0.2813, 3.1133,90,70,92,0.7725,0
 12, 1, 215, S2-19.jpg, 2, [10 240 94], green, 1, 161, 2, 1, 2.2827, 3, 0.2772, 2.2835,79,30,106,0.7566,0
 12, 1, 216, S2-19.jpg, 2, [181 10 240], purple, 0, 197, 2, 1, 2.7534, 3, 0.1585, 2.7542,82,24,77,0.7566,0
 12, 1, 217, S2-19.jpg, 2, [10 240 94], green, 1, 275, 1, 0, 3.8185, 2, 1.3337, 3.8195,78,33,81,0.7566,0
 12, 1, 218, S2-19.jpg, 2, [10 240 94], green, 1, 156, 2, 1, 2.1750, 3, 0.6103, 2.1760,88,36,88,0.7566,0
 12, 1, 219, S2-19.jpg, 2, [10 240 94], green, 1, 116, 2, 1, 1.6201, 4, 1.0433, 1.6211,83,41,93,0.7566,0
 12, 1, 220, S2-19.jpg, 2, [240 168 10], orange, NaN, 168, 2, 1, 2.3371, 4, 0.5065, 2.3381,97,52,137,0.7566,0
 12, 1, 221, S1-15.jpg, 1, [10 240 94], green, 0, 260, 2, 0, 3.6287, 2, 0.9940, 3.6297,92,24,119,0.7725,0
 12, 1, 222, S2-19.jpg, 2, [240 168 10], orange, NaN, 252, 2, 1, 3.5155, 3, 0.7453, 3.5162,83,30,109,0.7566,0
 12, 1, 223, S2-19.jpg, 2, [10 240 94], green, 1, 271, 1, 0, 3.7725, 3, 0.7977, 3.7734,85,24,76,0.7566,0
 12, 1, 224, S2-19.jpg, 2, [10 240 94], green, 1, 378, 2, 1, 5.2155, 2, 2.2511, 5.2164,135,32,88,0.7566,0
 12, 1, 225, S2-19.jpg, 2, [240 168 10], orange, NaN, 182, 1, 0, 2.5451, 3, 0.4079, 2.5461,111,45,96,0.7566,0
 12, 1, 226, S2-19.jpg, 2, [10 240 94], green, 1, 368, 2, 1, 5.1377, 3, 0.4418, 5.1389,83,66,80,0.7566,0
 12, 1, 227, S2-19.jpg, 2, [181 10 240], purple, 0, 424, 2, 1, 5.8656, 2, 0.6763, 5.8666,122,38,86,0.7566,1
 12, 1, 228, S1-15.jpg, 1, [181 10 240], purple, 1, 287, 2, 0, 3.9797, 3, 0.3401, 3.9807,88,36,121,0.7725,0
 12, 1, 229, S2-19.jpg, 2, [240 168 10], orange, NaN, 260, 1, 0, 3.5975, 3, 0.7789, 3.5986,84,25,82,0.7566,0
 12, 1, 230, S1-15.jpg, 1, [181 10 240], purple, 1, 361, 1, 1, 5.0117, 3, 0.6823, 5.0124,97,46,93,0.7725,0
 12, 1, 231, S1-15.jpg, 1, [181 10 240], purple, 1, 181, 1, 1, 2.5534, 3, 0.6366, 2.5546,97,51,92,0.7725,0
 12, 1, 232, S1-15.jpg, 1, [181 10 240], purple, 1, 176, 1, 1, 2.4356, 4, 0.5021, 2.4365,101,41,76,0.7725,0
 12, 1, 233, S2-19.jpg, 2, [181 10 240], purple, 0, 256, 1, 0, 3.5558, 2, 0.6208, 3.5567,124,45,110,0.7566,0
 12, 1, 234, S2-19.jpg, 2, [10 240 94], green, 1, 287, 2, 1, 4.0207, 2, 1.2413, 4.0215,88,39,78,0.7566,0
 12, 1, 235, S1-15.jpg, 1, [181 10 240], purple, 1, 157, 1, 1, 2.1859, 3, 0.6594, 2.1872,92,30,93,0.7725,0
 12, 1, 236, S2-19.jpg, 2, [10 240 94], green, 1, 170, 2, 1, 2.3741, 3, 0.3247, 2.3751,92,44,84,0.7566,0
 12, 1, 237, S1-15.jpg, 1, [181 10 240], purple, 1, 243, 2, 0, 3.3717, 3, 0.4093, 3.3724,195,71,115,0.7725,0
 12, 1, 238, S1-15.jpg, 1, [181 10 240], purple, 1, 323, 2, 0, 4.4863, 3, 0.7843, 4.4871,91,77,119,0.7725,0
 12, 1, 239, S1-15.jpg, 1, [181 10 240], purple, 1, 161, 1, 1, 2.2543, 3, 0.7168, 2.2558,113,32,78,0.7725,0
 12, 1, 240, S1-15.jpg, 1, [181 10 240], purple, 1, 241, 2, 0, 3.3299, 3, 0.3450, 3.3309,119,27,75,0.7725,0
 12, 1, 241, S2-19.jpg, 2, [10 240 94], green, 1, 142, 2, 1, 1.9850, 3, 0.4853, 1.9859,86,48,79,0.7566,0
 12, 1, 242, S2-19.jpg, 2, [240 168 10], orange, NaN, 165, 1, 0, 2.3264, 3, 0.7078, 2.3273,114,46,89,0.7566,0
 12, 1, 243, S1-15.jpg, 1, [181 10 240], purple, 1, 165, 2, 0, 2.3255, 2, 0.3466, 2.3265,85,43,80,0.7725,0
 12, 1, 244, S1-15.jpg, 1, [10 240 94], green, 0, 127, 2, 0, 1.8011, 3, 0.4039, 1.8020,81,54,122,0.7725,0
 12, 1, 245, S1-15.jpg, 1, [181 10 240], purple, 1, 271, 1, 1, 3.7589, 3, 0.6433, 3.7600,80,37,112,0.7725,0
 12, 1, 246, S1-15.jpg, 1, [181 10 240], purple, 1, 347, 2, 0, 4.8262, 3, 2.1040, 4.8270,100,46,77,0.7725,1
 12, 1, 247, S1-15.jpg, 1, [181 10 240], purple, 1, 394, 1, 1, 5.4745, 4, 1.1071, 5.4760,101,38,105,0.7725,0
 12, 1, 248, S2-19.jpg, 2, [181 10 240], purple, 0, 142, 1, 0, 2.0123, 4, 0.7939, 2.0130,77,50,84,0.7566,0
 12, 1, 249, S2-19.jpg, 2, [10 240 94], green, 1, 40, 2, 1, 0.5679, 4, 0.5973, 0.5688,77,52,83,0.7566,0
 12, 1, 250, S1-15.jpg, 1, [181 10 240], purple, 1, 151, 1, 1, 2.1586, 4, 0.5511, 2.1595,93,29,98,0.7725,0
 12, 1, 251, S1-15.jpg, 1, [181 10 240], purple, 1, 188, 2, 0, 2.6272, 3, 0.4544, 2.6287,91,24,101,0.7725,0
 12, 1, 252, S2-19.jpg, 2, [10 240 94], green, 1, 150, 2, 1, 2.1370, 3, 0.9275, 2.1379,85,42,118,0.7566,1
 12, 1, 253, S1-15.jpg, 1, [181 10 240], purple, 1, 61, 1, 1, 0.8459, 2, 1.0542, 0.8474,80,26,77,0.7725,1
 12, 1, 254, S2-19.jpg, 2, [10 240 94], green, 1, 53, 2, 1, 0.7197, 3, 0.3161, 0.7207,92,32,140,0.7566,0
 12, 1, 255, S2-19.jpg, 2, [240 168 10], orange, NaN, 161, 2, 1, 2.2745, 3, 0.7658, 2.2754,102,28,98,0.7566,0
 12, 1, 256, S2-19.jpg, 2, [240 168 10], orange, NaN, 167, 1, 0, 2.3718, 3, 0.4770, 2.3728,99,30,76,0.7566,0
 12, 1, 257, S2-19.jpg, 2, [10 240 94], green, 1, 151, 2, 1, 2.1242, 3, 0.4328, 2.1252,83,49,76,0.7566,0
 12, 1, 258, S1-15.jpg, 1, [181 10 240], purple, 1, 151, 1, 1, 2.1333, 3, 1.1965, 2.1347,102,42,116,0.7725,0
 12, 1, 259, S2-19.jpg, 2, [10 240 94], green, 1, 181, 2, 1, 2.5238, 3, 0.9370, 2.5248,83,43,97,0.7566,0
 12, 1, 260, S2-19.jpg, 2, [10 240 94], green, 1, 115, 2, 1, 1.6243, 3, 0.3651, 1.6258,76,45,81,0.7566,1
 12, 1, 261, S1-15.jpg, 1, [181 10 240], purple, 1, 105, 1, 1, 1.4766, 3, 0.5449, 1.4777,81,23,82,0.7725,0
 12, 1, 262, S1-15.jpg, 1, [10 240 94], green, 0, 248, 2, 0, 3.4500, 3, 0.6694, 3.4509,108,39,118,0.7725,0
 12, 1, 263, S2-19.jpg, 2, [10 240 94], green, 1, 281, 2, 1, 3.8935, 3, 0.7943, 3.8944,91,46,78,0.7566,0
 12, 1, 264, S2-19.jpg, 2, [10 240 94], green, 1, 306, 2, 1, 4.2837, 3, 0.5028, 4.2846,75,38,89,0.7566,0
 12, 1, 265, S2-19.jpg, 2, [240 168 10], orange, NaN, 282, 1, 0, 3.9406, 2, 0.8759, 3.9414,110,90,104,0.7566,0
 12, 1, 266, S1-15.jpg, 1, [181 10 240], purple, 1, 174, 1, 1, 2.4052, 3, 0.3442, 2.4062,121,60,92,0.7725,0
 12, 1, 267, S2-19.jpg, 2, [181 10 240], purple, 0, 347, 1, 0, 4.8563, 2, 0.6604, 4.8571,76,30,97,0.7566,0
 12, 1, 268, S2-19.jpg, 2, [10 240 94], green, 1, 195, 2, 1, 2.7174, 3, 0.4089, 2.7182,78,23,116,0.7566,0
 12, 1, 269, S1-15.jpg, 1, [10 240 94], green, 0, 141, 2, 0, 1.9783, 3, 0.3388, 1.9792,99,34,110,0.7725,0
 12, 1, 270, S2-19.jpg, 2, [240 168 10], orange, NaN, 187, 2, 1, 2.6094, 3, 0.3641, 2.6113,84,82,195,0.7566,0
 12, 1, 271, S1-15.jpg, 1, [181 10 240], purple, 1, 381, 1, 1, 5.2901, 3, 0.6676, 5.2909,101,39,87,0.7725,0
 12, 1, 272, S2-19.jpg, 2, [240 168 10], orange, NaN, 280, 1, 0, 3.8793, 3, 1.0459, 3.8802,125,49,109,0.7566,0
 12, 1, 273, S2-19.jpg, 2, [10 240 94], green, 1, 362, 2, 1, 5.0366, 1, 1.5064, 5.0375,90,27,76,0.7566,0
 12, 1, 274, S2-19.jpg, 2, [10 240 94], green, 1, 173, 1, 0, 2.4322, 2, 1.3160, 2.4331,111,65,96,0.7566,0
 12, 1, 275, S2-19.jpg, 2, [240 168 10], orange, NaN, 193, 2, 1, 2.6961, 3, 1.0627, 2.6976,80,24,130,0.7566,0
 12, 1, 276, S1-15.jpg, 1, [181 10 240], purple, 1, 290, 2, 0, 4.0570, 2, 0.3715, 4.0582,77,28,88,0.7725,0