subID,block,trial,targetImg,targetIdx,cue_rgb,cue_string,congruent,respFrame,response,accuracy,RT,confResp,confRT,flickerDuration,noise1frames,signal1frames,noise2frames,coherence,catch_trial
25,1,1, S4-20.jpg,2, [10 240 94], green,1,345,2,1,4.9047, NaN, NaN,4.913,195,53,85,0.5367,0
25,1,2, S4-20.jpg,2, [181 10 240], purple,0,304,1,0,4.3473,4,1.8527,4.348,91,26,89,0.5367,0
25,1,3, S4-20.jpg,2, [181 10 240], purple,0,301,2,1,4.3265,1,2.9993,4.3273,120,65,82,0.5367,0
25,1,4, S4-20.jpg,2, [10 240 94], green,1,389,2,1,5.5794,3,2.0266,5.5804,96,45,104,0.5367,0
25,1,5, S4-20.jpg,2, [10 240 94], green,1,359,2,1,5.1646,4,1.6128,5.1653,103,76,94,0.5367,0
25,1,6, S4-20.jpg,2, [10 240 94], green,1,296,2,1,4.2385,3,2.2207,4.2395,75,25,76,0.5367,0
25,1,7, S3-12.jpg,1, [240 168 10], orange, NaN,200,1,1,2.8628,4,1.7245,2.8639,107,60,95,0.7435,1
25,1,8, S3-12.jpg,1, [181 10 240], purple,1,351,2,0,5.0378,2,1.4039,5.0386,79,80,90,0.7435,0
25,1,9, S3-12.jpg,1, [181 10 240], purple,1,353,2,0,4.9091,3,1.8604,4.9098,106,40,78,0.7435,0
25,1,10, S4-20.jpg,2, [240 168 10], orange, NaN,246,1,0,3.5149,1,0.777,3.5156,124,24,77,0.5367,0
25,1,11, S4-20.jpg,2, [240 168 10], orange, NaN,429,2,1,6.1398,3,2.4791,6.1405,142,30,127,0.5367,0
25,1,12, S3-12.jpg,1, [181 10 240], purple,1,363,2,0,5.2045,2,1.7643,5.206,92,36,101,0.7435,0
25,1,13, S3-12.jpg,1, [181 10 240], purple,1,487,2,0,6.9322,1,1.949,6.9329,82,56,91,0.7435,0
25,1,14, S4-20.jpg,2, [10 240 94], green,1,326,2,1,4.6685,4,0.7244,4.6692,87,40,114,0.5367,0
25,1,15, S4-20.jpg,2, [10 240 94], green,1,287,2,1,4.1146,2,1.5247,4.1155,112,34,86,0.5367,0
25,1,16, S4-20.jpg,2, [181 10 240], purple,0,478,2,1,6.7972,3,1.3805,6.7982,100,23,76,0.5367,1
25,1,17, S3-12.jpg,1, [10 240 94], green,0,447,2,0,6.4041,3,1.032,6.4051,121,24,80,0.7435,0
25,1,18, S3-12.jpg,1, [240 168 10], orange, NaN,513,2,0,7.267,2,0.6193,7.268,92,37,89,0.7435,0
25,1,19, S4-20.jpg,2, [240 168 10], orange, NaN, NaN, NaN,0, NaN, NaN, NaN,7.7315,125,57,130,0.5367,1
25,1,20, S3-12.jpg,1, [181 10 240], purple,1,380,2,0,5.4327,2,0.8733,5.4335,98,28,92,0.7435,0
25,1,21, S4-20.jpg,2, [10 240 94], green,1,240,2,1,3.4229,1,0.4438,3.424,92,50,91,0.5367,0
25,1,22, S4-20.jpg,2, [10 240 94], green,1,383,2,1,5.4676,1,0.3574,5.4686,90,41,88,0.5367,0
25,1,23, S4-20.jpg,2, [10 240 94], green,1, NaN,1,0,7.9567,1,1.2731,7.7229,109,30,78,0.5367,0
25,1,24, S3-12.jpg,1, [181 10 240], purple,1,161,2,0,2.3181,4,1.1814,2.3191,87,67,108,0.7435,0
25,1,25, S3-12.jpg,1, [240 168 10], orange, NaN,427,2,0,6.0896,3,0.915,6.0906,82,25,118,0.7435,0
25,1,26, S4-20.jpg,2, [10 240 94], green,1, NaN, NaN,0, NaN,2,1.0994,7.6629,110,73,125,0.5367,0
25,1,27, S3-12.jpg,1, [181 10 240], purple,1,309,2,0,4.4109,2,1.7767,4.4117,77,40,75,0.7435,0
25,1,28, S4-20.jpg,2, [181 10 240], purple,0,381,2,1,5.4423,1,0.8036,5.4433,97,28,136,0.5367,0
25,1,29, S4-20.jpg,2, [10 240 94], green,1,418,1,0,5.9689,2,2.6138,5.9697,84,24,81,0.5367,0
25,1,30, S3-12.jpg,1, [181 10 240], purple,1,421,2,0,6.0171,3,2.2653,6.0179,82,41,143,0.7435,0
25,1,31, S3-12.jpg,1, [181 10 240], purple,1,374,1,1,5.3788,2,0.8231,5.3796,127,50,77,0.7435,0
25,1,32, S4-20.jpg,2, [10 240 94], green,1,407,2,1,5.8193, NaN, NaN,5.8203,96,77,101,0.5367,0
25,1,33, S4-20.jpg,2, [10 240 94], green,1,291,1,0,4.166,2,0.3059,4.1668,97,36,110,0.5367,0
25,1,34, S3-12.jpg,1, [181 10 240], purple,1, NaN, NaN,0, NaN,2,1.7731,7.886,77,30,90,0.7435,0
25,1,35, S3-12.jpg,1, [181 10 240], purple,1,449,2,0,6.4021,2,0.997,6.403,143,31,98,0.7435,0
25,1,36, S4-20.jpg,2, [181 10 240], purple,0,479,2,1,6.8398,1,0.6273,6.8407,91,32,79,0.5367,0
25,1,37, S4-20.jpg,2, [10 240 94], green,1,366,2,1,5.2382,1,1.7497,5.2397,88,40,93,0.5367,0
25,1,38, S3-12.jpg,1, [10 240 94], green,0,430,1,1,6.1476,3,2.7763,6.1485,76,26,105,0.7435,1
25,1,39, S4-20.jpg,2, [240 168 10], orange, NaN,409,2,1,5.8122,4,1.5397,5.8136,75,83,89,0.5367,0
25,1,40, S3-12.jpg,1, [181 10 240], purple,1,426,2,0,6.091, NaN, NaN,6.0918,95,30,81,0.7435,0
25,1,41, S4-20.jpg,2, [10 240 94], green,1,418,2,1,5.9392,4,1.0658,5.9403,80,39,87,0.5367,0
25,1,42, S3-12.jpg,1, [181 10 240], purple,1,305,1,1,4.3916, NaN, NaN,4.3926,86,24,134,0.7435,0
25,1,43, S3-12.jpg,1, [240 168 10], orange, NaN,233,1,1,3.3261,1,0.3563,3.327,85,27,133,0.7435,0
25,1,44, S4-20.jpg,2, [10 240 94], green,1,200,1,0,2.8374,3,1.1258,2.8383,87,40,79,0.5367,0
25,1,45, S4-20.jpg,2, [10 240 94], green,1,220,1,0,3.1565,4,0.6848,3.1575,78,45,76,0.5367,0
25,1,46, S3-12.jpg,1, [181 10 240], purple,1,494,2,0,7.0539,3,1.0852,7.0551,76,29,77,0.7435,0
25,1,47, S4-20.jpg,2, [240 168 10], orange, NaN,501,2,1,7.2184,4,0.4163,7.2194,76,25,96,0.5367,0
25,1,48, S3-12.jpg,1, [181 10 240], purple,1,332,1,1,4.7675,2,0.731,4.7685,131,31,82,0.7435,0
25,1,49, S3-12.jpg,1, [181 10 240], purple,1,395,1,1,5.6594,3,1.9652,5.6602,90,24,90,0.7435,0
25,1,50, S4-20.jpg,2, [181 10 240], purple,0,487,2,1,6.969,4,1.0061,6.9697,85,54,109,0.5367,0
25,1,51, S3-12.jpg,1, [181 10 240], purple,1,293,1,1,4.2126,1,0.4458,4.2135,88,39,93,0.7435,0
25,1,52, S4-20.jpg,2, [181 10 240], purple,0, NaN, NaN,0, NaN,1,2.2224,7.6548,75,28,108,0.5367,0
25,1,53, S4-20.jpg,2, [10 240 94], green,1,387,1,0,5.5287,1,0.4999,5.5295,91,87,94,0.5367,0
25,1,54, S4-20.jpg,2, [10 240 94], green,1,178,1,0,2.6142,3,0.3437,2.615,110,24,87,0.5367,0
25,1,55, S4-20.jpg,2, [10 240 94], green,1,291,2,1,4.1746,2,1.3463,4.1761,89,50,99,0.5367,0
25,1,56, S3-12.jpg,1, [181 10 240], purple,1,101,1,1,1.4932,4,0.4757,1.4939,106,30,129,0.7435,0
25,1,57, S4-20.jpg,2, [240 168 10], orange, NaN,463,2,1,6.6368,4,0.4463,6.6383,89,30,77,0.5367,0
25,1,58, S4-20.jpg,2, [10 240 94], green,1,222,1,0,3.2031,4,0.2957,3.2039,123,44,85,0.5367,0
25,1,59, S3-12.jpg,1, [181 10 240], purple,1, NaN, NaN,0, NaN,1,0.9254,7.6676,96,66,79,0.7435,0
25,1,60, S4-20.jpg,2, [10 240 94], green,1,133,1,0,1.9048,2,0.37,1.9057,135,34,84,0.5367,0
25,1,61, S3-12.jpg,1, [240 168 10], orange, NaN,368,1,1,5.2529,2,1.5842,5.2538,90,58,83,0.7435,0
25,1,62, S4-20.jpg,2, [10 240 94], green,1,310,2,1,4.4656,3,0.8322,4.4666,79,24,81,0.5367,0
25,1,63, S4-20.jpg,2, [181 10 240], purple,0,448,2,1,6.3278,2,1.3819,6.3292,115,62,103,0.5367,0
25,1,64, S4-20.jpg,2, [10 240 94], green,1,212,1,0,3.0342, NaN, NaN,3.0351,84,32,111,0.5367,0
25,1,65, S4-20.jpg,2, [10 240 94], green,1,182,1,0,2.6071,3,0.287,2.6078,83,41,98,0.5367,0
25,1,66, S3-12.jpg,1, [181 10 240], purple,1,285,1,1,4.0969,2,0.5347,4.0976,78,24,120,0.7435,1
25,1,67, S4-20.jpg,2, [10 240 94], green,1,363,2,1,5.2025,1,1.9421,5.2033,79,35,77,0.5367,0
25,1,68, S4-20.jpg,2, [10 240 94], green,1,220,2,1,3.1675,3,0.2673,3.1685,90,48,81,0.5367,1
25,1,69, S4-20.jpg,2, [10 240 94], green,1,293,2,1,4.2001, NaN, NaN,4.2011,76,35,109,0.5367,0
25,1,70, S4-20.jpg,2, [10 240 94], green,1,444,2,1,6.2324,4,1.0568,6.2334,85,34,82,0.5367,0
25,1,71, S3-12.jpg,1, [181 10 240], purple,1,287,2,0,4.0905,4,0.3225,4.0916,80,66,102,0.7435,0
25,1,72, S3-12.jpg,1, [181 10 240], purple,1,354,2,0,5.0754,2,0.3813,5.0769,97,63,82,0.7435,0
25,1,73, S3-12.jpg,1, [240 168 10], orange, NaN, NaN, NaN,0, NaN,1,1.0509,7.7045,86,48,106,0.7435,0
25,1,74, S3-12.jpg,1, [181 10 240], purple,1,244,2,0,3.5128,1,1.6903,3.5137,78,45,84,0.7435,0
25,1,75, S4-20.jpg,2, [240 168 10], orange, NaN,232,2,1,3.334,3,0.5005,3.335,77,33,93,0.5367,0
25,1,76, S3-12.jpg,1, [10 240 94], green,0,284,1,1,4.0801,2,0.7024,4.0811,105,32,90,0.7435,0
25,1,77, S3-12.jpg,1, [240 168 10], orange, NaN, NaN,2,0,7.7866,2,1.4279,7.6692,77,26,88,0.7435,0
25,1,78, S3-12.jpg,1, [10 240 94], green,0,283,1,1,4.0751,3,0.9556,4.0761,78,64,105,0.7435,0
25,1,79, S3-12.jpg,1, [10 240 94], green,0,343,2,0,4.8808,3,1.5612,4.8817,78,28,99,0.7435,0
25,1,80, S4-20.jpg,2, [240 168 10], orange, NaN,478,1,0,6.7848,3,1.22,6.7862,104,33,78,0.5367,0
25,1,81, S3-12.jpg,1, [181 10 240], purple,1,497,2,0,7.0621,4,0.9246,7.0631,86,54,120,0.7435,1
25,1,82, S3-12.jpg,1, [181 10 240], purple,1, NaN, NaN,0, NaN,1,0.4344,7.7162,79,78,106,0.7435,0
25,1,83, S3-12.jpg,1, [181 10 240], purple,1,355,1,1,5.0829,3,2.9759,5.0837,79,38,78,0.7435,0
25,1,84, S4-20.jpg,2, [10 240 94], green,1,358,2,1,5.081,4,0.6617,5.0819,83,74,139,0.5367,0
25,1,85, S3-12.jpg,1, [10 240 94], green,0,196,1,1,2.8261,3,1.1515,2.827,81,53,107,0.7435,0
25,1,86, S4-20.jpg,2, [240 168 10], orange, NaN,435,2,1,6.1759,4,1.0791,6.1767,80,43,80,0.5367,0
25,1,87, S3-12.jpg,1, [181 10 240], purple,1, NaN, NaN,0, NaN,1,0.371,7.6996,94,49,102,0.7435,0
25,1,88, S4-20.jpg,2, [181 10 240], purple,0,233,1,0,3.3535,1,0.3059,3.3545,80,31,103,0.5367,0
25,1,89, S4-20.jpg,2, [10 240 94], green,1,337,1,0,4.8325,1,0.2514,4.8335,102,38,81,0.5367,0
25,1,90, S4-20.jpg,2, [10 240 94], green,1,471,2,1,6.7381, NaN, NaN,6.7388,92,32,112,0.5367,0
25,1,91, S3-12.jpg,1, [240 168 10], orange, NaN,245,1,1,3.4861,1,0.425,3.4871,77,41,102,0.7435,0
25,1,92, S3-12.jpg,1, [181 10 240], purple,1,345,2,0,4.9413,2,1.4384,4.942,76,60,81,0.7435,0
25,1,93, S4-20.jpg,2, [240 168 10], orange, NaN,439,2,1,6.2167,4,0.5933,6.2178,80,35,76,0.5367,0
25,1,94, S4-20.jpg,2, [181 10 240], purple,0,305,2,1,4.4121,2,1.3895,4.4128,87,25,78,0.5367,0
25,1,95, S4-20.jpg,2, [240 168 10], orange, NaN,306,2,1,4.3476,2,1.3741,4.3491,75,52,124,0.5367,1
25,1,96, S3-12.jpg,1, [181 10 240], purple,1,461,1,1,6.5591,1,2.5764,6.56,101,143,83,0.7435,0
25,1,97, S3-12.jpg,1, [181 10 240], purple,1,474,2,0,6.8325,3,2.6253,6.8332,88,47,97,0.7435,0
25,1,98, S3-12.jpg,1, [240 168 10], orange, NaN,414,2,0,5.9172,4,2.0691,5.9181,94,61,85,0.7435,0
25,1,99, S4-20.jpg,2, [181 10 240], purple,0,453,2,1,6.4661,4,0.4377,6.4668,85,46,107,0.5367,0
25,1,100, S3-12.jpg,1, [181 10 240], purple,1, NaN,2,0,7.9699,1,0.3657,7.6991,114,25,90,0.7435,0
25,1,101, S4-20.jpg,2, [10 240 94], green,1,222,1,0,3.194,1,0.6587,3.1948,76,26,126,0.5367,0
25,1,102, S4-20.jpg,2, [10 240 94], green,1, NaN, NaN,0, NaN,1,0.376,7.6679,79,27,93,0.5367,0
25,1,103, S4-20.jpg,2, [10 240 94], green,1,144,1,0,2.0675,1,0.86,2.0686,83,29,83,0.5367,0
25,1,104, S3-12.jpg,1, [240 168 10], orange, NaN,168,1,1,2.423,3,0.2831,2.424,94,75,100,0.7435,0
25,1,105, S3-12.jpg,1, [240 168 10], orange, NaN,254,1,1,3.6691,2,0.9678,3.6698,81,39,116,0.7435,0
25,1,106, S4-20.jpg,2, [181 10 240], purple,0,233,1,0,3.3573,2,0.2764,3.358,99,45,75,0.5367,0
25,1,107, S4-20.jpg,2, [10 240 94], green,1,326,1,0,4.6774,2,0.6059,4.6781,86,34,119,0.5367,0
25,1,108, S4-20.jpg,2, [10 240 94], green,1,339,1,0,4.8411,1,0.2833,4.8421,77,48,97,0.5367,0
25,1,109, S3-12.jpg,1, [181 10 240], purple,1,292,2,0,4.1593,2,0.3628,4.1602,77,32,81,0.7435,0
25,1,110, S4-20.jpg,2, [240 168 10], orange, NaN, NaN,2,1,7.9874,1,0.382,7.7088,136,52,76,0.5367,0
25,1,111, S3-12.jpg,1, [240 168 10], orange, NaN,309,1,1,4.4239,2,2.7387,4.4253,89,29,95,0.7435,0
25,1,112, S4-20.jpg,2, [10 240 94], green,1,194,2,1,2.8233,3,0.5699,2.8243,88,58,117,0.5367,0
25,1,113, S3-12.jpg,1, [240 168 10], orange, NaN,302,1,1,4.2998,4,0.7721,4.3005,85,27,76,0.7435,0
25,1,114, S4-20.jpg,2, [10 240 94], green,1,317,2,1,4.5496, NaN, NaN,4.5508,98,47,112,0.5367,0
25,1,115, S4-20.jpg,2, [181 10 240], purple,0,255,2,1,3.6195,3,0.5398,3.6203,81,35,92,0.5367,0
25,1,116, S3-12.jpg,1, [240 168 10], orange, NaN,334,2,0,4.807,1,1.0937,4.8078,119,45,88,0.7435,0
25,1,117, S4-20.jpg,2, [10 240 94], green,1,314,2,1,4.4613,3,0.603,4.4623,76,52,83,0.5367,1
25,1,118, S3-12.jpg,1, [181 10 240], purple,1,301,2,0,4.3334,1,1.453,4.3344,114,46,75,0.7435,1
25,1,119, S4-20.jpg,2, [240 168 10], orange, NaN, NaN, NaN,0, NaN,1,0.3151,7.7099,195,32,86,0.5367,0
25,1,120, S4-20.jpg,2, [10 240 94], green,1,237,2,1,3.4344,3,0.9246,3.4352,100,41,85,0.5367,1
25,1,121, S3-12.jpg,1, [181 10 240], purple,1,346,2,0,4.9289,1,0.4711,4.9297,79,23,131,0.7435,0
25,1,122, S4-20.jpg,2, [240 168 10], orange, NaN,386,2,1,5.5197,1,0.4204,5.5205,83,26,91,0.5367,0
25,1,123, S3-12.jpg,1, [181 10 240], purple,1,332,1,1,4.7732,1,2.4143,4.7739,104,56,105,0.7435,0
25,1,124, S3-12.jpg,1, [181 10 240], purple,1,332,1,1,4.708,3,1.4999,4.709,90,39,103,0.7435,0
25,1,125, S4-20.jpg,2, [240 168 10], orange, NaN, NaN, NaN,0, NaN,1,0.5988,7.7281,141,30,96,0.5367,0
25,1,126, S3-12.jpg,1, [181 10 240], purple,1,193,1,1,2.7527,3,1.385,2.754,98,28,97,0.7435,0
25,1,127, S3-12.jpg,1, [181 10 240], purple,1,235,1,1,3.3391,2,0.8565,3.34,76,62,87,0.7435,0
25,1,128, S3-12.jpg,1, [10 240 94], green,0,92,1,1,1.3485,4,0.855,1.3495,92,31,80,0.7435,0
25,1,129, S3-12.jpg,1, [181 10 240], purple,1,256,1,1,3.6804,1,2.478,3.6819,79,28,77,0.7435,0
25,1,130, S3-12.jpg,1, [181 10 240], purple,1,370,2,0,5.2551,4,0.6254,5.256,83,51,91,0.7435,0
25,1,131, S3-12.jpg,1, [181 10 240], purple,1, NaN, NaN,0, NaN,1,0.4468,7.7746,82,50,89,0.7435,0
25,1,132, S3-12.jpg,1, [10 240 94], green,0,128,1,1,1.8873,2,1.6003,1.8883,109,37,95,0.7435,0
25,1,133, S4-20.jpg,2, [181 10 240], purple,0,377,1,0,5.3621,3,1.4702,5.3633,101,56,86,0.5367,0
25,1,134, S4-20.jpg,2, [10 240 94], green,1,404,1,0,5.7732,4,1.6514,5.7745,87,51,77,0.5367,0
25,1,135, S3-12.jpg,1, [181 10 240], purple,1,319,1,1,4.5757,2,0.3604,4.5765,99,33,80,0.7435,0
25,1,136, S4-20.jpg,2, [10 240 94], green,1, NaN, NaN,0, NaN,1,0.4599,7.754,81,36,83,0.5367,1
25,1,137, S3-12.jpg,1, [181 10 240], purple,1,300,2,0,4.2913,2,0.3627,4.2921,81,59,79,0.7435,0
25,1,138, S3-12.jpg,1, [240 168 10], orange, NaN,474,1,1,6.7803,3,0.5548,6.7817,89,36,114,0.7435,0
25,1,139, S3-12.jpg,1, [10 240 94], green,0,412,2,0,5.9187,2,1.0244,5.9194,85,27,111,0.7435,0
25,1,140, S4-20.jpg,2, [10 240 94], green,1,420,2,1,6.0001, NaN, NaN,6.0013,139,25,80,0.5367,0
25,1,141, S4-20.jpg,2, [240 168 10], orange, NaN,307,2,1,4.3753,2,0.2832,4.3763,109,28,113,0.5367,0
25,1,142, S4-20.jpg,2, [10 240 94], green,1,413,2,1,5.8877,3,0.4515,5.8887,84,25,94,0.5367,0
25,1,143, S3-12.jpg,1, [181 10 240], purple,1,521,2,0,7.4462, NaN, NaN,7.4469,82,27,76,0.7435,0
25,1,144, S3-12.jpg,1, [240 168 10], orange, NaN,432,2,0,6.1392,1,1.6042,6.1402,90,79,93,0.7435,0
25,1,145, S4-20.jpg,2, [240 168 10], orange, NaN,189,1,0,2.738,2,0.2732,2.7387,78,90,86,0.5367,0
25,1,146, S4-20.jpg,2, [10 240 94], green,1,376,2,1,5.3974,4,0.8997,5.3984,80,49,76,0.5367,0
25,1,147, S4-20.jpg,2, [10 240 94], green,1,359,2,1,5.1692,4,0.4461,5.1703,94,68,121,0.5367,0
25,1,148, S4-20.jpg,2, [10 240 94], green,1,370,2,1,5.2784,3,0.5466,5.2795,116,37,98,0.5367,0
25,1,149, S4-20.jpg,2, [10 240 94], green,1,247,1,0,3.5698,2,1.1678,3.5706,82,43,79,0.5367,0
25,1,150, S3-12.jpg,1, [181 10 240], purple,1,398,2,0,5.6624,1,1.1326,5.6634,100,44,110,0.7435,0
25,1,151, S3-12.jpg,1, [10 240 94], green,0,286,1,1,4.1294,2,0.3749,4.1301,102,55,77,0.7435,0
25,1,152, S3-12.jpg,1, [181 10 240], purple,1,322,2,0,4.6432,3,0.6704,4.6439,80,42,82,0.7435,0
25,1,153, S3-12.jpg,1, [10 240 94], green,0,305,2,0,4.3875,3,0.2462,4.3889,89,46,85,0.7435,0
25,1,154, S3-12.jpg,1, [181 10 240], purple,1,369,2,0,5.2777,3,1.6833,5.2788,82,29,82,0.7435,0
25,1,155, S3-12.jpg,1, [240 168 10], orange, NaN,344,1,1,4.9056,4,1.6059,4.9063,81,26,87,0.7435,0
25,1,156, S3-12.jpg,1, [10 240 94], green,0,322,2,0,4.6103,2,2.5414,4.6113,76,82,96,0.7435,0
25,1,157, S3-12.jpg,1, [181 10 240], purple,1,429,2,0,6.1542,1,1.8565,6.1552,133,26,119,0.7435,0
25,1,158, S3-12.jpg,1, [181 10 240], purple,1,357,1,1,5.1249,3,1.113,5.1259,107,26,104,0.7435,0
25,1,159, S4-20.jpg,2, [10 240 94], green,1,194,1,0,2.8121,3,0.3096,2.8129,105,38,79,0.5367,0
25,1,160, S3-12.jpg,1, [181 10 240], purple,1,413,2,0,5.9082,2,2.8315,5.909,96,31,84,0.7435,1
25,1,161, S3-12.jpg,1, [10 240 94], green,0,529,2,0,7.5732,1,1.2412,7.574,92,32,79,0.7435,0
25,1,162, S4-20.jpg,2, [240 168 10], orange, NaN, NaN, NaN,0, NaN,1,0.319,7.7235,119,24,107,0.5367,0
25,1,163, S4-20.jpg,2, [240 168 10], orange, NaN,306,1,0,4.3928,1,0.2762,4.3939,101,23,195,0.5367,0
25,1,164, S4-20.jpg,2, [10 240 94], green,1,188,2,1,2.7159,3,0.5837,2.7166,111,44,90,0.5367,0
25,1,165, S3-12.jpg,1, [240 168 10], orange, NaN,313,2,0,4.4626,4,0.4765,4.4641,80,23,76,0.7435,0
25,1,166, S4-20.jpg,2, [10 240 94], green,1,318,2,1,4.5813,4,0.9165,4.5821,108,26,96,0.5367,0
25,1,167, S4-20.jpg,2, [240 168 10], orange, NaN,535,2,1,7.6605,2,0.533,7.6612,107,69,97,0.5367,0
25,1,168, S3-12.jpg,1, [181 10 240], purple,1,272,1,1,3.9237,3,0.6921,3.9244,78,59,88,0.7435,0
25,1,169, S3-12.jpg,1, [181 10 240], purple,1,460,2,0,6.6216,2,1.2949,6.6223,93,38,92,0.7435,1
25,1,170, S4-20.jpg,2, [181 10 240], purple,0,333,1,0,4.7639,2,1.4421,4.7647,93,84,87,0.5367,0
25,1,171, S3-12.jpg,1, [181 10 240], purple,1, NaN, NaN,0, NaN,1,0.3655,7.7102,77,29,106,0.7435,0
25,1,172, S3-12.jpg,1, [181 10 240], purple,1,185,2,0,2.6937,1,0.5162,2.6944,95,37,83,0.7435,0
25,1,173, S4-20.jpg,2, [10 240 94], green,1,246,2,1,3.5522,2,0.4481,3.553,126,49,123,0.5367,0
25,1,174, S4-20.jpg,2, [10 240 94], green,1,181,2,1,2.6083,3,0.3543,2.6092,77,36,88,0.5367,0
25,1,175, S3-12.jpg,1, [181 10 240], purple,1,279,2,0,4.0372,2,0.7589,4.0381,105,27,94,0.7435,0
25,1,176, S4-20.jpg,2, [10 240 94], green,1,319,2,1,4.5768,2,0.4007,4.5778,86,42,89,0.5367,0
25,1,177, S3-12.jpg,1, [240 168 10], orange, NaN,182,1,1,2.6429,3,0.7972,2.6436,130,35,77,0.7435,0
25,1,178, S3-12.jpg,1, [181 10 240], purple,1,194,2,0,2.8225,2,0.3805,2.8233,93,43,138,0.7435,0
25,1,179, S4-20.jpg,2, [240 168 10], orange, NaN,376,1,0,5.398,4,0.8361,5.399,80,24,83,0.5367,0
25,1,180, S3-12.jpg,1, [181 10 240], purple,1,263,1,1,3.7642,3,0.3647,3.7652,77,25,100,0.7435,0
25,1,181, S3-12.jpg,1, [10 240 94], green,0,298,2,0,4.2408,3,1.3482,4.2418,95,86,79,0.7435,0
25,1,182, S3-12.jpg,1, [181 10 240], purple,1,309,2,0,4.4001,2,0.2224,4.4016,83,42,79,0.7435,0
25,1,183, S3-12.jpg,1, [240 168 10], orange, NaN,239,1,1,3.4787,1,0.2295,3.4794,87,33,140,0.7435,0
25,1,184, S3-12.jpg,1, [181 10 240], purple,1,236,1,1,3.3841,1,0.3806,3.3848,84,51,87,0.7435,0
25,1,185, S4-20.jpg,2, [10 240 94], green,1,181,2,1,2.61,3,0.2781,2.6107,94,37,135,0.5367,0
25,1,186, S4-20.jpg,2, [240 168 10], orange, NaN,233,1,0,3.3506,4,0.2988,3.3516,77,91,76,0.5367,0
25,1,187, S4-20.jpg,2, [10 240 94], green,1,218,2,1,3.1196,2,0.444,3.1206,128,35,77,0.5367,0
25,1,188, S3-12.jpg,1, [181 10 240], purple,1,524,1,1,7.4774,1,0.3003,7.4783,113,31,113,0.7435,0
25,1,189, S4-20.jpg,2, [10 240 94], green,1,185,2,1,2.6881,3,0.2859,2.6888,120,37,95,0.5367,1
25,1,190, S3-12.jpg,1, [10 240 94], green,0,214,2,0,3.0894,3,0.5969,3.0909,101,26,78,0.7435,1
25,1,191, S3-12.jpg,1, [10 240 94], green,0,229,1,1,3.3,1,1.5319,3.301,78,39,77,0.7435,0
25,1,192, S3-12.jpg,1, [181 10 240], purple,1,488,1,1,6.9374,2,0.2263,6.9384,112,46,118,0.7435,0
25,1,193, S4-20.jpg,2, [10 240 94], green,1,219,2,1,3.1825,1,1.5021,3.1836,118,29,88,0.5367,0
25,1,194, S4-20.jpg,2, [10 240 94], green,1,284,2,1,4.0967,3,2.4274,4.0975,88,44,87,0.5367,0
25,1,195, S3-12.jpg,1, [181 10 240], purple,1,187,1,1,2.6801,3,0.8372,2.6816,83,31,117,0.7435,0
25,1,196, S3-12.jpg,1, [181 10 240], purple,1,364,2,0,5.1622,4,0.5092,5.1632,111,57,78,0.7435,0
25,1,197, S3-12.jpg,1, [181 10 240], purple,1,223,1,1,3.2269,3,0.2999,3.2276,118,34,110,0.7435,0
25,1,198, S4-20.jpg,2, [10 240 94], green,1,366,2,1,5.2401,2,2.5319,5.2415,89,29,80,0.5367,0
25,1,199, S4-20.jpg,2, [181 10 240], purple,0,429,2,1,5.9615,1,1.6446,5.9623,97,36,78,0.5367,0
25,1,200, S4-20.jpg,2, [10 240 94], green,1,172,1,0,2.4682,4,1.4411,2.469,84,35,85,0.5367,0
25,1,201, S4-20.jpg,2, [10 240 94], green,1,279,2,1,4.0161,2,2.8434,4.017,85,28,84,0.5367,0
25,1,202, S3-12.jpg,1, [181 10 240], purple,1,387,2,0,5.5195,1,0.7877,5.5204,99,38,86,0.7435,0
25,1,203, S4-20.jpg,2, [240 168 10], orange, NaN,247,1,0,3.5488,3,0.3125,3.5495,134,25,80,0.5367,0
25,1,204, S4-20.jpg,2, [181 10 240], purple,0,158,2,1,2.3045,1,1.7135,2.3055,78,70,80,0.5367,0
25,1,205, S3-12.jpg,1, [240 168 10], orange, NaN,161,1,1,2.296,2,0.2807,2.2968,137,32,100,0.7435,1
25,1,206, S3-12.jpg,1, [10 240 94], green,0,321,2,0,4.6044,1,2.4134,4.6054,103,47,89,0.7435,0
25,1,207, S3-12.jpg,1, [240 168 10], orange, NaN,120,1,1,1.7618,4,0.5012,1.7628,100,29,86,0.7435,0
25,1,208, S3-12.jpg,1, [240 168 10], orange, NaN,356,2,0,5.1147,2,1.4556,5.1155,82,89,81,0.7435,0
25,1,209, S3-12.jpg,1, [181 10 240], purple,1,279,1,1,3.9824,1,0.6204,3.9831,76,55,83,0.7435,0
25,1,210, S4-20.jpg,2, [10 240 94], green,1,275,2,1,3.9692,4,0.5502,3.9699,75,28,80,0.5367,0
25,1,211, S4-20.jpg,2, [10 240 94], green,1,251,1,0,3.6277,3,1.2933,3.6286,117,38,103,0.5367,0
25,1,212, S3-12.jpg,1, [181 10 240], purple,1,310,2,0,4.4169,3,2.5143,4.4178,80,51,75,0.7435,0
25,1,213, S3-12.jpg,1, [181 10 240], purple,1,291,1,1,4.1929,2,2,4.1937,76,85,99,0.7435,0
25,1,214, S4-20.jpg,2, [10 240 94], green,1,294,1,0,4.2174,1,0.2741,4.2183,90,25,81,0.5367,0
25,1,215, S3-12.jpg,1, [240 168 10], orange, NaN,342,2,0,4.9218,3,0.557,4.9233,93,36,86,0.7435,0
25,1,216, S4-20.jpg,2, [10 240 94], green,1,244,2,1,3.5428,3,0.3266,3.5437,87,43,101,0.5367,1
25,1,217, S4-20.jpg,2, [10 240 94], green,1,320,1,0,4.5978,2,0.8356,4.5988,80,40,195,0.5367,0
25,1,218, S3-12.jpg,1, [181 10 240], purple,1,190,1,1,2.7128,4,1.7174,2.7143,78,38,96,0.7435,0
25,1,219, S3-12.jpg,1, [181 10 240], purple,1,301,2,0,4.2838,2,0.8045,4.2847,88,54,91,0.7435,0
25,1,220, S4-20.jpg,2, [10 240 94], green,1,332,2,1,4.7501,4,0.559,4.7508,77,28,108,0.5367,0
25,1,221, S4-20.jpg,2, [240 168 10], orange, NaN,115,1,0,1.6552,3,0.3841,1.6561,84,34,101,0.5367,1
25,1,222, S4-20.jpg,2, [10 240 94], green,1,291,2,1,4.1336,4,0.4692,4.1346,84,27,87,0.5367,0
25,1,223, S4-20.jpg,2, [10 240 94], green,1,219,1,0,3.1544,3,0.2838,3.1555,97,41,75,0.5367,0
25,1,224, S4-20.jpg,2, [181 10 240], purple,0,450,2,1,6.4147,3,1.0065,6.4156,116,29,90,0.5367,0
25,1,225, S4-20.jpg,2, [10 240 94], green,1,335,2,1,4.8424,4,0.3635,4.8431,83,68,95,0.5367,0
25,1,226, S4-20.jpg,2, [240 168 10], orange, NaN,441,1,0,6.2868,3,0.292,6.2881,86,37,115,0.5367,0
25,1,227, S3-12.jpg,1, [181 10 240], purple,1,243,1,1,3.5228,4,0.7306,3.5236,95,143,92,0.7435,0
25,1,228, S4-20.jpg,2, [10 240 94], green,1,327,1,0,4.7366,2,0.317,4.7373,138,25,75,0.5367,0
25,1,229, S3-12.jpg,1, [181 10 240], purple,1,284,2,0,4.1141,1,0.6257,4.1148,117,27,84,0.7435,0
25,1,230, S3-12.jpg,1, [181 10 240], purple,1,345,2,0,4.9402,3,0.7323,4.9417,104,58,77,0.7435,0
25,1,231, S4-20.jpg,2, [10 240 94], green,1,450,1,0,6.4314,3,0.6203,6.4325,108,88,137,0.5367,0
25,1,232, S3-12.jpg,1, [181 10 240], purple,1,367,2,0,5.2379, NaN, NaN,5.2389,89,35,81,0.7435,0
25,1,233, S3-12.jpg,1, [181 10 240], purple,1,248,1,1,3.5269,1,0.3001,3.5276,122,29,141,0.7435,0
25,1,234, S4-20.jpg,2, [10 240 94], green,1,159,2,1,2.2917,2,0.3282,2.2924,87,32,93,0.5367,0
25,1,235, S3-12.jpg,1, [181 10 240], purple,1,220,1,1,3.1997,3,0.5222,3.2005,83,26,142,0.7435,0
25,1,236, S3-12.jpg,1, [181 10 240], purple,1,396,1,1,5.641,1,0.3134,5.642,85,30,102,0.7435,0
25,1,237, S3-12.jpg,1, [181 10 240], purple,1,287,2,0,4.1458,1,0.188,4.1468,78,33,104,0.7435,0
25,1,238, S3-12.jpg,1, [181 10 240], purple,1,365,2,0,5.2587,1,1.7157,5.2597,106,67,115,0.7435,0
25,1,239, S3-12.jpg,1, [10 240 94], green,0,491,2,0,6.9941,4,0.9451,6.995,95,34,97,0.7435,0
25,1,240, S4-20.jpg,2, [10 240 94], green,1,429,2,1,6.1366,3,0.4178,6.1374,75,33,128,0.5367,0
25,1,241, S3-12.jpg,1, [10 240 94], green,0,453,2,0,6.4938,2,0.2715,6.4945,84,81,132,0.7435,0
25,1,242, S3-12.jpg,1, [181 10 240], purple,1,400,2,0,5.6495,3,0.3165,5.6506,91,44,79,0.7435,0
25,1,243, S4-20.jpg,2, [10 240 94], green,1,481,2,1,6.901,3,1.7408,6.9018,108,33,89,0.5367,0
25,1,244, S3-12.jpg,1, [181 10 240], purple,1,371,1,1,5.3277,4,1.6657,5.3286,81,71,85,0.7435,1
25,1,245, S4-20.jpg,2, [10 240 94], green,1,324,2,1,4.6301,4,1.0041,4.6311,102,31,109,0.5367,0
25,1,246, S4-20.jpg,2, [10 240 94], green,1,465,2,1,6.6309,3,1.49,6.6318,98,47,98,0.5367,0
25,1,247, S4-20.jpg,2, [240 168 10], orange, NaN,354,2,1,5.0304,2,0.5436,5.0319,79,42,83,0.5367,0
25,1,248, S3-12.jpg,1, [181 10 240], purple,1,330,1,1,4.7576,1,0.3086,4.7585,115,27,88,0.7435,0
25,1,249, S3-12.jpg,1, [181 10 240], purple,1,317,2,0,4.5889,2,0.8521,4.5896,88,24,78,0.7435,0
25,1,250, S3-12.jpg,1, [181 10 240], purple,1,375,2,0,5.366,4,0.9159,5.3671,77,27,78,0.7435,0
25,1,251, S4-20.jpg,2, [240 168 10], orange, NaN,430,1,0,6.1436,4,0.8359,6.1443,102,65,80,0.5367,0
25,1,252, S4-20.jpg,2, [10 240 94], green,1,347,2,1,4.9503,4,0.9611,4.9514,82,53,86,0.5367,1
25,1,253, S3-12.jpg,1, [240 168 10], orange, NaN, NaN, NaN,0, NaN,1,0.5883,7.7302,103,43,85,0.7435,1
25,1,254, S3-12.jpg,1, [240 168 10], orange, NaN,388,1,1,5.5442,3,1.2363,5.5453,81,55,91,0.7435,0
25,1,255, S3-12.jpg,1, [10 240 94], green,0,316,2,0,4.5539,2,0.3659,4.5546,84,23,82,0.7435,0
25,1,256, S4-20.jpg,2, [10 240 94], green,1,472,2,1,6.7612,2,0.3401,6.7626,110,30,79,0.5367,0
25,1,257, S4-20.jpg,2, [181 10 240], purple,0,449,1,0,6.4378,1,0.8837,6.4385,81,24,84,0.5367,0
25,1,258, S3-12.jpg,1, [10 240 94], green,0,297,2,0,4.2603,3,0.5314,4.2613,76,34,76,0.7435,0
25,1,259, S4-20.jpg,2, [181 10 240], purple,0,366,2,1,5.2156,3,0.4489,5.2166,93,28,100,0.5367,1
25,1,260, S4-20.jpg,2, [10 240 94], green,1,392,2,1,5.5953,2,0.9015,5.5968,86,63,77,0.5367,0
25,1,261, S4-20.jpg,2, [181 10 240], purple,0,474,1,0,6.8348,4,0.6723,6.8357,103,42,94,0.5367,0
25,1,262, S3-12.jpg,1, [181 10 240], purple,1,401,1,1,5.716,3,0.875,5.717,81,23,80,0.7435,0
25,1,263, S4-20.jpg,2, [10 240 94], green,1,402,2,1,5.7253,4,1.9475,5.7263,96,49,92,0.5367,1
25,1,264, S4-20.jpg,2, [10 240 94], green,1, NaN, NaN,0, NaN,1,0.2442,7.7431,91,27,122,0.5367,0
25,1,265, S4-20.jpg,2, [10 240 94], green,1,218,2,1,3.183,1,0.7102,3.1837,82,25,82,0.5367,0
25,1,266, S4-20.jpg,2, [10 240 94], green,1,277,2,1,3.9483,3,0.3573,3.9493,91,39,76,0.5367,0
25,1,267, S3-12.jpg,1, [181 10 240], purple,1,398,2,0,5.7361,1,1.2449,5.7371,93,64,99,0.7435,0
25,1,268, S3-12.jpg,1, [181 10 240], purple,1,184,2,0,2.651,1,0.7961,2.6517,78,61,84,0.7435,1
25,1,269, S4-20.jpg,2, [240 168 10], orange, NaN,161,1,0,2.3405,1,0.3521,2.3415,140,33,78,0.5367,0
25,1,270, S4-20.jpg,2, [10 240 94], green,1,345,1,0,4.909,3,0.4985,4.91,79,31,84,0.5367,0
25,1,271, S3-12.jpg,1, [240 168 10], orange, NaN,522,1,1,7.4542,3,1.5179,7.4549,99,26,82,0.7435,0
25,1,272, S3-12.jpg,1, [181 10 240], purple,1,313,1,1,4.4951,3,0.5579,4.4958,132,30,84,0.7435,1
25,1,273, S3-12.jpg,1, [10 240 94], green,0,331,2,0,4.7912,4,0.5519,4.7921,113,72,78,0.7435,0
25,1,274, S4-20.jpg,2, [181 10 240], purple,0,381,2,1,5.3472,4,0.5538,5.3481,129,25,82,0.5367,0
25,1,275, S4-20.jpg,2, [10 240 94], green,1,251,2,1,3.6289, NaN, NaN,3.6298,86,48,92,0.5367,0
25,1,276, S3-12.jpg,1, [240 168 10], orange, NaN,160,1,1,2.2732,4,0.6112,2.2743,79,57,116,0.7435,0