subID,block,trial,targetImg,targetIdx,cue_rgb,cue_string,congruent,respFrame,response,accuracy,RT,confResp,confRT,flickerDuration,noise1frames,signal1frames,noise2frames,coherence,catch_trial
 101, 1, 1, S3-12.jpg, 1, [240 168 10], orange, 1, 294, 2, 0, 4.2056, 3, 1.5447, 4.2094,94,53,78,0.7703,0
 101, 1, 2, S3-12.jpg, 1, [181 10 240], purple, 0, 89, 1, 1, 1.3278, 2, 0.7437, 1.3287,87,60,80,0.7703,0
 101, 1, 3, S3-12.jpg, 1, [181 10 240], purple, 0, 87, 1, 1, 1.2364, 4, 0.7878, 1.2372,81,39,79,0.7703,0
 101, 1, 4, S3-12.jpg, 1, [240 168 10], orange, 1, 171, 2, 0, 2.4508, 3, 0.4797, 2.4516,82,32,77,0.7703,0
 101, 1, 5, S3-12.jpg, 1, [181 10 240], purple, 0, 185, 1, 1, 2.7020, 2, 0.9325, 2.7029,84,49,79,0.7703,0
 101, 1, 6, S3-12.jpg, 1, [181 10 240], purple, 0, 173, 1, 1, 2.5303, 2, 0.1023, 2.5317,119,41,78,0.7703,0
 101, 1, 7, S3-12.jpg, 1, [240 168 10], orange, 1, 208, 1, 1, 2.9984, 2, 0.3090, 2.9992,80,54,81,0.7703,0
 101, 1, 8, S3-12.jpg, 1, [10 240 94], green, NaN, 93, 2, 0, 1.3364, 3, 0.4969, 1.3374,76,57,78,0.7703,0
 101, 1, 9, S3-12.jpg, 1, [181 10 240], purple, 0, 268, 1, 1, 3.8610, 4, 0.6240, 3.8619,87,25,75,0.7703,0
 101, 1, 10, S3-12.jpg, 1, [181 10 240], purple, 0, 227, 2, 0, 3.2769, 2, 0.3879, 3.2780,97,34,84,0.7703,0
 101, 1, 11, S3-12.jpg, 1, [240 168 10], orange, 1, 226, 1, 1, 3.2821, 3, 0.2725, 3.2830,80,63,77,0.7703,0
 101, 1, 12, S3-12.jpg, 1, [181 10 240], purple, 0, 244, 1, 1, 3.5188, 2, 0.3674, 3.5198,108,30,131,0.7703,0
 101, 1, 13, S4-20.jpg, 2, [10 240 94], green, NaN, 165, 2, 1, 2.3582, 4, 0.1802, 2.3596,84,42,107,0.7631,1
 101, 1, 14, S3-12.jpg, 1, [181 10 240], purple, 0, 295, 2, 0, 4.2289, 2, 0.6222, 4.2299,79,35,92,0.7703,0
 101, 1, 15, S3-12.jpg, 1, [181 10 240], purple, 0, 191, 1, 1, 2.7567, 3, 0.4473, 2.7577,79,56,125,0.7703,0
 101, 1, 16, S3-12.jpg, 1, [181 10 240], purple, 0, 248, 1, 1, 3.5937, 2, 0.2390, 3.5952,82,28,84,0.7703,0
 101, 1, 17, S3-12.jpg, 1, [10 240 94], green, NaN, 290, 2, 0, 4.1401, 4, 0.2273, 4.1410,86,36,82,0.7703,0
 101, 1, 18, S3-12.jpg, 1, [240 168 10], orange, 1, 283, 1, 1, 4.0380, 3, 0.4960, 4.0389,79,75,83,0.7703,0
 101, 1, 19, S3-12.jpg, 1, [240 168 10], orange, 1, 204, 1, 1, 3.0149, 4, 0.1801, 3.0156,100,26,104,0.7703,0
 101, 1, 20, S3-12.jpg, 1, [10 240 94], green, NaN, 317, 2, 0, 4.5304, 4, 0.0086, 4.5319,80,36,96,0.7703,0
 101, 1, 21, S3-12.jpg, 1, [181 10 240], purple, 0, 257, 2, 0, 3.6853, 2, 0.2132, 3.6863,120,38,121,0.7703,0
 101, 1, 22, S3-12.jpg, 1, [181 10 240], purple, 0, 174, 2, 0, 2.5498, 3, 0.2278, 2.5508,84,36,80,0.7703,1
 101, 1, 23, S3-12.jpg, 1, [240 168 10], orange, 1, 218, 1, 1, 3.1344, 3, 0.1153, 3.1354,92,30,75,0.7703,0
 101, 1, 24, S3-12.jpg, 1, [181 10 240], purple, 0, 268, 1, 1, 3.8245, 2, 0.4207, 3.8254,77,82,80,0.7703,0
 101, 1, 25, S3-12.jpg, 1, [240 168 10], orange, 1, 266, 1, 1, 3.8462, 2, 0.3059, 3.8471,83,34,87,0.7703,0
 101, 1, 26, S3-12.jpg, 1, [10 240 94], green, NaN, 239, 2, 0, 3.4575, 3, 0.4036, 3.4583,122,23,108,0.7703,0
 101, 1, 27, S3-12.jpg, 1, [240 168 10], orange, 1, 293, 2, 0, 4.1813, 3, 0.3359, 4.1822,78,27,80,0.7703,0
 101, 1, 28, S3-12.jpg, 1, [181 10 240], purple, 0, 335, 2, 0, 4.8202, 3, 0.6900, 4.8215,88,39,88,0.7703,0
 101, 1, 29, S3-12.jpg, 1, [10 240 94], green, NaN, 365, 2, 0, 5.2220, 4, 0.4421, 5.2227,119,32,86,0.7703,0
 101, 1, 30, S3-12.jpg, 1, [10 240 94], green, NaN, 272, 2, 0, 3.9111, 4, 0.2841, 3.9120,90,45,135,0.7703,0
 101, 1, 31, S3-12.jpg, 1, [240 168 10], orange, 1, 243, 1, 1, 3.4868, 3, 0.5364, 3.4878,91,25,82,0.7703,0
 101, 1, 32, S3-12.jpg, 1, [240 168 10], orange, 1, 248, 1, 1, 3.5710, 4, 0.4797, 3.5723,83,43,82,0.7703,0
 101, 1, 33, S3-12.jpg, 1, [240 168 10], orange, 1, 304, 1, 1, 4.3323, 2, 0.4256, 4.3331,88,48,79,0.7703,0
 101, 1, 34, S3-12.jpg, 1, [181 10 240], purple, 0, 387, 2, 0, 5.5592, 2, 0.3267, 5.5606,114,27,106,0.7703,0
 101, 1, 35, S3-12.jpg, 1, [10 240 94], green, NaN, 148, 1, 1, 2.2084, 4, 0.4773, 2.2092,78,30,78,0.7703,0
 101, 1, 36, S4-20.jpg, 2, [181 10 240], purple, 1, 327, 2, 1, 4.6959, 3, 0.3440, 4.6969,100,38,140,0.7631,1
 101, 1, 37, S3-12.jpg, 1, [240 168 10], orange, 1, 223, 1, 1, 3.2361, 4, 0.1373, 3.2370,101,33,87,0.7703,0
 101, 1, 38, S3-12.jpg, 1, [10 240 94], green, NaN, 288, 2, 0, 4.1868, 3, 0.2326, 4.1878,76,33,75,0.7703,0
 101, 1, 39, S3-12.jpg, 1, [240 168 10], orange, 1, 224, 1, 1, 3.2348, 3, 0.3514, 3.2358,133,26,91,0.7703,0
 101, 1, 40, S3-12.jpg, 1, [10 240 94], green, NaN, 283, 1, 1, 4.0868, 2, 0.5194, 4.0878,92,29,86,0.7703,0
 101, 1, 41, S3-12.jpg, 1, [181 10 240], purple, 0, 346, 2, 0, 4.9605, 2, 0.1964, 4.9615,102,32,114,0.7703,0
 101, 1, 42, S3-12.jpg, 1, [240 168 10], orange, 1, 411, 2, 0, 5.9111, 2, 0.2626, 5.9119,81,51,80,0.7703,0
 101, 1, 43, S3-12.jpg, 1, [240 168 10], orange, 1, 343, 1, 1, 4.9084, 2, 0.0002, 4.9092,107,41,114,0.7703,0
 101, 1, 44, S3-12.jpg, 1, [181 10 240], purple, 0, 327, 2, 0, 4.6802, 2, 0.3815, 4.6812,91,37,94,0.7703,0
 101, 1, 45, S3-12.jpg, 1, [10 240 94], green, NaN, 468, 2, 0, 6.7074, 3, 0.9313, 6.7085,75,38,97,0.7703,0
 101, 1, 46, S3-12.jpg, 1, [181 10 240], purple, 0, 509, 2, 0, 7.2944, 2, 0.3871, 7.2954,91,44,83,0.7703,0
 101, 1, 47, S3-12.jpg, 1, [10 240 94], green, NaN, 275, 1, 1, 3.9450, 1, 1.1649, 3.9461,77,54,120,0.7703,0
 101, 1, 48, S4-20.jpg, 2, [181 10 240], purple, 1, 376, 1, 0, 5.4041, 1, 0.5224, 5.4050,93,26,119,0.7631,1
 101, 1, 49, S4-20.jpg, 2, [181 10 240], purple, 1, 275, 1, 0, 3.9521, 3, 0.3323, 3.9530,75,26,195,0.7631,1
 101, 1, 50, S3-12.jpg, 1, [240 168 10], orange, 1, 267, 1, 1, 3.8618, 4, 1.1608, 3.8626,82,25,102,0.7703,0
 101, 1, 51, S3-12.jpg, 1, [10 240 94], green, NaN, 263, 2, 0, 3.8112, 4, 1.3819, 3.8120,96,23,80,0.7703,0
 101, 1, 52, S4-20.jpg, 2, [10 240 94], green, NaN, 187, 2, 1, 2.6708, 4, 0.2317, 2.6717,110,51,113,0.7631,1
 101, 1, 53, S3-12.jpg, 1, [181 10 240], purple, 0, 306, 1, 1, 4.4469, 3, 0.0002, 4.4476,94,69,96,0.7703,0
 101, 1, 54, S3-12.jpg, 1, [240 168 10], orange, 1, 287, 1, 1, 4.1499, 4, 0.0708, 4.1506,80,28,90,0.7703,0
 101, 1, 55, S3-12.jpg, 1, [181 10 240], purple, 0, 255, 1, 1, 3.6951, 3, 0.5845, 3.6959,92,29,109,0.7703,0
 101, 1, 56, S3-12.jpg, 1, [10 240 94], green, NaN, 363, 2, 0, 5.1926, 3, 0.3201, 5.1933,75,49,95,0.7703,0
 101, 1, 57, S3-12.jpg, 1, [240 168 10], orange, 1, 409, 1, 1, 5.8362, 2, 0.9706, 5.8377,130,37,81,0.7703,0
 101, 1, 58, S3-12.jpg, 1, [240 168 10], orange, 1, 448, 2, 0, 6.1978, 3, 0.2746, 6.1988,141,25,110,0.7703,0
 101, 1, 59, S3-12.jpg, 1, [240 168 10], orange, 1, 360, 2, 0, 5.1497, 3, 1.0853, 5.1505,84,72,108,0.7703,0
 101, 1, 60, S3-12.jpg, 1, [240 168 10], orange, 1, NaN, NaN, 0, NaN, 1, 1.4109, 7.7425,111,31,82,0.7703,0
 101, 1, 61, S3-12.jpg, 1, [181 10 240], purple, 0, 211, 1, 1, 3.0081, 2, 0.4392, 3.0088,76,85,139,0.7703,0
 101, 1, 62, S4-20.jpg, 2, [181 10 240], purple, 1, 232, 1, 0, 3.3791, 3, 1.2539, 3.3798,83,31,98,0.7631,1
 101, 1, 63, S4-20.jpg, 2, [240 168 10], orange, 0, 159, 1, 0, 2.3075, 4, 0.1993, 2.3085,78,23,77,0.7631,0
 101, 1, 64, S3-12.jpg, 1, [240 168 10], orange, 1, 194, 1, 1, 2.8045, 3, 0.5612, 2.8052,82,31,98,0.7703,0
 101, 1, 65, S4-20.jpg, 2, [181 10 240], purple, 1, 361, 2, 1, 5.2096, 2, 0.3979, 5.2106,75,24,111,0.7631,0
 101, 1, 66, S3-12.jpg, 1, [240 168 10], orange, 1, 287, 1, 1, 4.0983, 3, 0.3282, 4.0993,93,43,76,0.7703,0
 101, 1, 67, S3-12.jpg, 1, [240 168 10], orange, 1, 318, 2, 0, 4.5550, 2, 0.3888, 4.5559,76,54,138,0.7703,0
 101, 1, 68, S4-20.jpg, 2, [181 10 240], purple, 1, 401, 2, 1, 5.7425, 2, 0.3433, 5.7434,85,46,96,0.7631,0
 101, 1, 69, S3-12.jpg, 1, [181 10 240], purple, 0, 339, 1, 1, 4.8694, 3, 1.3328, 4.8703,95,34,86,0.7703,0
 101, 1, 70, S4-20.jpg, 2, [181 10 240], purple, 1, 217, 1, 0, 3.1029, 4, 0.3583, 3.1038,115,25,86,0.7631,0
 101, 1, 71, S3-12.jpg, 1, [10 240 94], green, NaN, 445, 2, 0, 6.4847, 2, 1.4755, 6.4854,109,42,82,0.7703,0
 101, 1, 72, S3-12.jpg, 1, [240 168 10], orange, 1, 400, 1, 1, 5.7503, 1, 0.3617, 5.7513,89,55,123,0.7703,1
 101, 1, 73, S4-20.jpg, 2, [181 10 240], purple, 1, 219, 1, 0, 3.1565, 4, 0.1659, 3.1572,117,41,110,0.7631,0
 101, 1, 74, S3-12.jpg, 1, [240 168 10], orange, 1, 453, 2, 0, 6.5261, 2, 0.4243, 6.5271,80,71,101,0.7703,0
 101, 1, 75, S3-12.jpg, 1, [10 240 94], green, NaN, 224, 2, 0, 3.2297, 3, 0.2609, 3.2306,85,30,79,0.7703,0
 101, 1, 76, S3-12.jpg, 1, [240 168 10], orange, 1, 384, 2, 0, 5.5142, 2, 0.3008, 5.5149,87,24,108,0.7703,0
 101, 1, 77, S4-20.jpg, 2, [240 168 10], orange, 0, 357, 2, 1, 5.1248, 2, 0.4120, 5.1258,104,28,100,0.7631,0
 101, 1, 78, S3-12.jpg, 1, [240 168 10], orange, 1, 255, 1, 1, 3.6707, 3, 0.3818, 3.6717,112,25,116,0.7703,0
 101, 1, 79, S4-20.jpg, 2, [181 10 240], purple, 1, 347, 2, 1, 4.9939, 3, 1.0162, 4.9947,77,36,84,0.7631,0
 101, 1, 80, S4-20.jpg, 2, [181 10 240], purple, 1, 174, 1, 0, 2.4896, 4, 0.5911, 2.4904,110,37,76,0.7631,0
 101, 1, 81, S3-12.jpg, 1, [240 168 10], orange, 1, 313, 1, 1, 4.4878, 3, 0.4231, 4.4888,110,27,84,0.7703,0
 101, 1, 82, S3-12.jpg, 1, [10 240 94], green, NaN, 284, 1, 1, 4.0743, 2, 0.3447, 4.0758,85,35,88,0.7703,0
 101, 1, 83, S4-20.jpg, 2, [181 10 240], purple, 1, 292, 2, 1, 4.2154, 2, 0.1197, 4.2161,78,28,76,0.7631,0
 101, 1, 84, S3-12.jpg, 1, [240 168 10], orange, 1, 284, 1, 1, 4.1006, 4, 0.2660, 4.1014,118,46,111,0.7703,1
 101, 1, 85, S3-12.jpg, 1, [10 240 94], green, NaN, 297, 2, 0, 4.2779, 4, 0.1746, 4.2788,86,33,126,0.7703,0
 101, 1, 86, S4-20.jpg, 2, [240 168 10], orange, 0, 328, 2, 1, 4.7167, 3, 0.4305, 4.7182,80,59,119,0.7631,0
 101, 1, 87, S3-12.jpg, 1, [240 168 10], orange, 1, 347, 2, 0, 4.9955, 3, 0.8269, 4.9966,83,41,99,0.7703,0
 101, 1, 88, S3-12.jpg, 1, [181 10 240], purple, 0, 225, 1, 1, 3.2459, 2, 0.5835, 3.2468,81,27,93,0.7703,0
 101, 1, 89, S4-20.jpg, 2, [181 10 240], purple, 1, 248, 1, 0, 3.6171, 3, 0.2472, 3.6179,76,35,102,0.7631,0
 101, 1, 90, S3-12.jpg, 1, [10 240 94], green, NaN, 383, 2, 0, 5.4847, 3, 0.3636, 5.4856,95,45,101,0.7703,0
 101, 1, 91, S4-20.jpg, 2, [181 10 240], purple, 1, 379, 2, 1, 5.4184, 2, 0.2197, 5.4193,90,34,133,0.7631,0
 101, 1, 92, S3-12.jpg, 1, [181 10 240], purple, 0, 317, 1, 1, 4.5357, 1, 0.5601, 4.5371,80,44,77,0.7703,0
 101, 1, 93, S3-12.jpg, 1, [10 240 94], green, NaN, 363, 2, 0, 5.2118, 3, 1.5015, 5.2127,102,64,80,0.7703,0
 101, 1, 94, S3-12.jpg, 1, [10 240 94], green, NaN, 413, 2, 0, 5.9508, 3, 1.1580, 5.9516,98,40,80,0.7703,0
 101, 1, 95, S3-12.jpg, 1, [240 168 10], orange, 1, 418, 2, 0, 6.0100, 2, 0.2726, 6.0115,116,28,79,0.7703,1
 101, 1, 96, S4-20.jpg, 2, [181 10 240], purple, 1, 383, 1, 0, 5.5279, 2, 0.3607, 5.5291,90,24,77,0.7631,0
 101, 1, 97, S3-12.jpg, 1, [240 168 10], orange, 1, 212, 1, 1, 3.0573, 3, 0.4583, 3.0581,84,37,89,0.7703,0
 101, 1, 98, S4-20.jpg, 2, [181 10 240], purple, 1, 271, 1, 0, 3.8863, 2, 0.1613, 3.8871,86,50,85,0.7631,0
 101, 1, 99, S3-12.jpg, 1, [181 10 240], purple, 0, NaN, 2, 0, 7.8274, 2, 0.4732, 7.8033,76,88,89,0.7703,0
 101, 1, 100, S3-12.jpg, 1, [10 240 94], green, NaN, 349, 2, 0, 4.9656, 4, 0.7156, 4.9665,89,23,113,0.7703,0
 101, 1, 101, S4-20.jpg, 2, [240 168 10], orange, 0, 427, 2, 1, 6.1215, 3, 0.3507, 6.1224,77,27,105,0.7631,0
 101, 1, 102, S3-12.jpg, 1, [181 10 240], purple, 0, 444, 2, 0, 6.3747, 2, 0.2944, 6.3757,76,25,84,0.7703,0
 101, 1, 103, S3-12.jpg, 1, [181 10 240], purple, 0, 312, 1, 1, 4.5220, 3, 1.1870, 4.5233,91,26,77,0.7703,0
 101, 1, 104, S4-20.jpg, 2, [181 10 240], purple, 1, 402, 2, 1, 5.7455, 2, 0.4726, 5.7464,108,28,90,0.7631,0
 101, 1, 105, S4-20.jpg, 2, [181 10 240], purple, 1, 189, 1, 0, 2.7325, 3, 1.6452, 2.7333,87,56,85,0.7631,0
 101, 1, 106, S3-12.jpg, 1, [10 240 94], green, NaN, 407, 2, 0, 5.8879, 2, 0.3605, 5.8894,85,34,92,0.7703,0
 101, 1, 107, S3-12.jpg, 1, [10 240 94], green, NaN, 284, 1, 1, 4.0933, 2, 0.4691, 4.0942,134,42,103,0.7703,0
 101, 1, 108, S4-20.jpg, 2, [181 10 240], purple, 1, 423, 2, 1, 6.0491, 2, 0.1270, 6.0499,77,40,87,0.7631,0
 101, 1, 109, S4-20.jpg, 2, [240 168 10], orange, 0, 272, 1, 0, 3.9156, 2, 1.2518, 3.9166,78,35,94,0.7631,0
 101, 1, 110, S4-20.jpg, 2, [240 168 10], orange, 0, 389, 1, 0, 5.5406, 3, 0.9663, 5.5417,91,27,77,0.7631,0
 101, 1, 111, S3-12.jpg, 1, [181 10 240], purple, 0, 273, 1, 1, 3.9283, 3, 0.4166, 3.9293,79,32,106,0.7703,0
 101, 1, 112, S4-20.jpg, 2, [181 10 240], purple, 1, 226, 1, 0, 3.2888, 4, 0.3385, 3.2898,76,87,83,0.7631,0
 101, 1, 113, S3-12.jpg, 1, [10 240 94], green, NaN, 407, 2, 0, 5.8502, 4, 0.3970, 5.8510,78,61,92,0.7703,0
 101, 1, 114, S3-12.jpg, 1, [240 168 10], orange, 1, 419, 2, 0, 5.9919, 2, 0.2693, 5.9928,107,51,86,0.7703,0
 101, 1, 115, S3-12.jpg, 1, [240 168 10], orange, 1, 246, 1, 1, 3.4959, 4, 0.3320, 3.4968,88,42,81,0.7703,0
 101, 1, 116, S3-12.jpg, 1, [240 168 10], orange, 1, 274, 1, 1, 3.9402, 1, 0.4463, 3.9412,81,35,79,0.7703,0
 101, 1, 117, S4-20.jpg, 2, [181 10 240], purple, 1, 340, 2, 1, 4.8869, 3, 0.2166, 4.8880,87,23,90,0.7631,0
 101, 1, 118, S3-12.jpg, 1, [10 240 94], green, NaN, 290, 2, 0, 4.1820, 3, 0.4046, 4.1828,93,29,92,0.7703,0
 101, 1, 119, S4-20.jpg, 2, [181 10 240], purple, 1, 415, 1, 0, 5.9580, 1, 0.2178, 5.9590,88,33,93,0.7631,0
 101, 1, 120, S4-20.jpg, 2, [240 168 10], orange, 0, 417, 1, 0, 5.9992, 2, 0.3436, 6.0001,104,66,80,0.7631,0
 101, 1, 121, S4-20.jpg, 2, [10 240 94], green, NaN, 308, 2, 1, 4.2983, 3, 0.2453, 4.2992,108,31,77,0.7631,0
 101, 1, 122, S3-12.jpg, 1, [240 168 10], orange, 1, 213, 1, 1, 3.0670, 4, 0.3806, 3.0680,106,24,88,0.7703,0
 101, 1, 123, S4-20.jpg, 2, [181 10 240], purple, 1, 350, 1, 0, 5.0699, 2, 0.2518, 5.0706,142,31,130,0.7631,0
 101, 1, 124, S3-12.jpg, 1, [181 10 240], purple, 0, 283, 1, 1, 4.0988, 4, 0.4938, 4.0995,79,68,78,0.7703,0
 101, 1, 125, S3-12.jpg, 1, [240 168 10], orange, 1, 198, 1, 1, 2.8646, 4, 0.3281, 2.8656,81,33,82,0.7703,0
 101, 1, 126, S3-12.jpg, 1, [181 10 240], purple, 0, 288, 1, 1, 4.1509, 2, 0.7993, 4.1519,112,33,105,0.7703,0
 101, 1, 127, S3-12.jpg, 1, [240 168 10], orange, 1, 468, 2, 0, 6.6832, 2, 0.2577, 6.6842,77,24,76,0.7703,0
 101, 1, 128, S3-12.jpg, 1, [240 168 10], orange, 1, 190, 1, 1, 2.7829, 2, 1.3479, 2.7837,127,40,92,0.7703,0
 101, 1, 129, S4-20.jpg, 2, [240 168 10], orange, 0, 110, 1, 0, 1.6108, 4, 0.4048, 1.6118,77,143,91,0.7631,0
 101, 1, 130, S4-20.jpg, 2, [240 168 10], orange, 0, 235, 1, 0, 3.3802, 3, 0.1804, 3.3811,81,66,86,0.7631,0
 101, 1, 131, S4-20.jpg, 2, [10 240 94], green, NaN, 306, 2, 1, 4.3511, 4, 0.1479, 4.3522,82,35,96,0.7631,0
 101, 1, 132, S3-12.jpg, 1, [10 240 94], green, NaN, 185, 2, 0, 2.6850, 4, 0.1806, 2.6858,83,81,118,0.7703,1
 101, 1, 133, S3-12.jpg, 1, [181 10 240], purple, 0, 392, 2, 0, 5.5935, 3, 0.3838, 5.5950,102,23,83,0.7703,0
 101, 1, 134, S3-12.jpg, 1, [10 240 94], green, NaN, 383, 2, 0, 5.5257, 3, 0.4074, 5.5265,126,34,76,0.7703,1
 101, 1, 135, S4-20.jpg, 2, [240 168 10], orange, 0, 193, 1, 0, 2.7467, 3, 0.7424, 2.7477,79,28,103,0.7631,0
 101, 1, 136, S4-20.jpg, 2, [10 240 94], green, NaN, 465, 2, 1, 6.6679, 2, 0.2196, 6.6687,94,31,87,0.7631,0
 101, 1, 137, S4-20.jpg, 2, [181 10 240], purple, 1, 469, 2, 1, 6.7025, 1, 0.1023, 6.7035,91,46,78,0.7631,0
 101, 1, 138, S3-12.jpg, 1, [240 168 10], orange, 1, 288, 1, 1, 4.1549, 4, 0.0778, 4.1557,93,37,118,0.7703,0
 101, 1, 139, S4-20.jpg, 2, [10 240 94], green, NaN, 441, 2, 1, 6.3362, 4, 0.8672, 6.3371,94,29,81,0.7631,0
 101, 1, 140, S4-20.jpg, 2, [10 240 94], green, NaN, 360, 2, 1, 5.1587, 4, 0.4770, 5.1596,78,36,91,0.7631,0
 101, 1, 141, S4-20.jpg, 2, [10 240 94], green, NaN, 536, 2, 1, 7.7162, 1, 0.3203, 7.7170,121,25,81,0.7631,0
 101, 1, 142, S3-12.jpg, 1, [181 10 240], purple, 0, 479, 1, 1, 6.9349, 1, 0.3744, 6.9359,83,35,101,0.7703,0
 101, 1, 143, S4-20.jpg, 2, [240 168 10], orange, 0, 400, 1, 0, 5.7910, 2, 0.4351, 5.7919,87,31,77,0.7631,0
 101, 1, 144, S3-12.jpg, 1, [181 10 240], purple, 0, 511, 2, 0, 7.3538, 2, 0.8224, 7.3553,118,31,77,0.7703,0
 101, 1, 145, S4-20.jpg, 2, [240 168 10], orange, 0, 307, 2, 1, 4.4196, 2, 1.0034, 4.4206,83,39,195,0.7631,0
 101, 1, 146, S4-20.jpg, 2, [240 168 10], orange, 0, 438, 2, 1, 6.2621, 3, 0.8191, 6.2631,92,61,78,0.7631,1
 101, 1, 147, S4-20.jpg, 2, [181 10 240], purple, 1, 298, 1, 0, 4.2837, 3, 0.4032, 4.2847,76,68,128,0.7631,0
 101, 1, 148, S4-20.jpg, 2, [10 240 94], green, NaN, 264, 2, 1, 3.8237, 4, 0.2766, 3.8244,87,57,137,0.7631,0
 101, 1, 149, S3-12.jpg, 1, [240 168 10], orange, 1, 437, 1, 1, 6.2516, 3, 0.9996, 6.2527,99,28,90,0.7703,0
 101, 1, 150, S3-12.jpg, 1, [240 168 10], orange, 1, 215, 1, 1, 3.0887, 4, 0.1159, 3.0895,98,27,83,0.7703,1
 101, 1, 151, S4-20.jpg, 2, [181 10 240], purple, 1, 364, 2, 1, 5.2893, 3, 0.2246, 5.2901,86,29,95,0.7631,0
 101, 1, 152, S3-12.jpg, 1, [240 168 10], orange, 1, 387, 2, 0, 5.6003, 2, 0.1291, 5.6011,89,67,75,0.7703,0
 101, 1, 153, S4-20.jpg, 2, [10 240 94], green, NaN, 366, 2, 1, 5.2983, 3, 0.7659, 5.2994,78,83,83,0.7631,0
 101, 1, 154, S3-12.jpg, 1, [240 168 10], orange, 1, 334, 2, 0, 4.8086, 3, 0.5597, 4.8096,75,30,85,0.7703,0
 101, 1, 155, S4-20.jpg, 2, [240 168 10], orange, 0, 273, 1, 0, 3.9684, 3, 0.3251, 3.9693,106,53,85,0.7631,0
 101, 1, 156, S4-20.jpg, 2, [240 168 10], orange, 0, 372, 2, 1, 5.3671, 3, 0.2230, 5.3683,83,36,92,0.7631,0
 101, 1, 157, S4-20.jpg, 2, [181 10 240], purple, 1, 219, 1, 0, 3.1917, 4, 0.5177, 3.1924,96,30,129,0.7631,0
 101, 1, 158, S4-20.jpg, 2, [240 168 10], orange, 0, 251, 1, 0, 3.6468, 4, 0.0801, 3.6477,88,86,83,0.7631,0
 101, 1, 159, S4-20.jpg, 2, [10 240 94], green, NaN, 347, 2, 1, 4.9849, 4, 0.5088, 4.9858,100,53,132,0.7631,1
 101, 1, 160, S3-12.jpg, 1, [181 10 240], purple, 0, 315, 1, 1, 4.4772, 2, 0.2203, 4.4781,103,79,96,0.7703,0
 101, 1, 161, S3-12.jpg, 1, [181 10 240], purple, 0, 450, 2, 0, 6.4768, 3, 0.1833, 6.4775,97,44,91,0.7703,0
 101, 1, 162, S4-20.jpg, 2, [10 240 94], green, NaN, 280, 2, 1, 3.9668, 4, 0.1823, 3.9678,77,39,143,0.7631,0
 101, 1, 163, S4-20.jpg, 2, [10 240 94], green, NaN, 400, 1, 0, 5.8049, 1, 0.3342, 5.8059,102,30,76,0.7631,0
 101, 1, 164, S3-12.jpg, 1, [181 10 240], purple, 0, 207, 1, 1, 3.0178, 4, 0.0002, 3.0185,95,48,87,0.7703,0
 101, 1, 165, S4-20.jpg, 2, [181 10 240], purple, 1, 265, 1, 0, 3.8215, 2, 0.1640, 3.8223,76,28,80,0.7631,0
 101, 1, 166, S3-12.jpg, 1, [181 10 240], purple, 0, 328, 2, 0, 4.7088, 2, 0.6493, 4.7098,78,27,94,0.7703,0
 101, 1, 167, S3-12.jpg, 1, [240 168 10], orange, 1, NaN, NaN, 0, NaN, 1, 0.9053, 7.7499,85,49,82,0.7703,0
 101, 1, 168, S4-20.jpg, 2, [240 168 10], orange, 0, 157, 1, 0, 2.3042, 3, 0.2293, 2.3052,80,62,90,0.7631,0
 101, 1, 169, S4-20.jpg, 2, [240 168 10], orange, 0, 191, 1, 0, 2.7464, 4, 0.4150, 2.7474,101,24,85,0.7631,0
 101, 1, 170, S3-12.jpg, 1, [181 10 240], purple, 0, 344, 1, 1, 4.9483, 2, 0.2308, 4.9494,77,49,100,0.7703,0
 101, 1, 171, S4-20.jpg, 2, [181 10 240], purple, 1, 411, 2, 1, 5.9003, 2, 0.3503, 5.9011,84,41,98,0.7631,0
 101, 1, 172, S3-12.jpg, 1, [240 168 10], orange, 1, 365, 2, 0, 5.2116, 2, 1.4307, 5.2130,140,26,101,0.7703,0
 101, 1, 173, S4-20.jpg, 2, [240 168 10], orange, 0, 439, 2, 1, 6.3021, 2, 0.4014, 6.3031,78,58,95,0.7631,0
 101, 1, 174, S3-12.jpg, 1, [181 10 240], purple, 0, 349, 2, 0, 5.0556, 3, 0.9506, 5.0566,101,50,109,0.7703,0
 101, 1, 175, S4-20.jpg, 2, [181 10 240], purple, 1, 347, 1, 0, 5.0299, 2, 0.5978, 5.0307,77,47,127,0.7631,0
 101, 1, 176, S3-12.jpg, 1, [240 168 10], orange, 1, 283, 1, 1, 4.0264, 2, 0.2458, 4.0273,99,25,89,0.7703,0
 101, 1, 177, S4-20.jpg, 2, [10 240 94], green, NaN, 305, 2, 1, 4.3815, 3, 0.5031, 4.3823,85,90,90,0.7631,0
 101, 1, 178, S4-20.jpg, 2, [181 10 240], purple, 1, 368, 1, 0, 5.3387, 1, 0.2016, 5.3397,90,64,105,0.7631,1
 101, 1, 179, S4-20.jpg, 2, [10 240 94], green, NaN, 421, 2, 1, 6.0359, 2, 0.2582, 6.0366,109,38,134,0.7631,0
 101, 1, 180, S4-20.jpg, 2, [240 168 10], orange, 0, 201, 1, 0, 2.8897, 3, 0.3437, 2.8912,77,45,106,0.7631,0
 101, 1, 181, S3-12.jpg, 1, [181 10 240], purple, 0, 250, 1, 1, 3.6052, 2, 0.2657, 3.6070,109,51,94,0.7703,0
 101, 1, 182, S4-20.jpg, 2, [181 10 240], purple, 1, 304, 1, 0, 4.3516, 1, 0.2549, 4.3528,84,29,79,0.7631,0
 101, 1, 183, S3-12.jpg, 1, [181 10 240], purple, 0, 226, 1, 1, 3.2507, 2, 0.2511, 3.2517,81,57,82,0.7703,0
 101, 1, 184, S4-20.jpg, 2, [10 240 94], green, NaN, 280, 2, 1, 4.0583, 3, 0.2558, 4.0593,80,45,97,0.7631,0
 101, 1, 185, S3-12.jpg, 1, [10 240 94], green, NaN, 289, 2, 0, 4.2094, 3, 0.3512, 4.2103,103,43,84,0.7703,1
 101, 1, 186, S3-12.jpg, 1, [240 168 10], orange, 1, 290, 1, 1, 4.2075, 1, 0.5185, 4.2083,98,24,115,0.7703,0
 101, 1, 187, S3-12.jpg, 1, [181 10 240], purple, 0, 438, 1, 1, 6.2926, 1, 0.1454, 6.2941,84,34,88,0.7703,0
 101, 1, 188, S4-20.jpg, 2, [240 168 10], orange, 0, 382, 2, 1, 5.5120, 2, 0.0969, 5.5128,90,25,84,0.7631,0
 101, 1, 189, S4-20.jpg, 2, [181 10 240], purple, 1, 276, 2, 1, 3.9736, 2, 0.3224, 3.9744,81,30,78,0.7631,1
 101, 1, 190, S4-20.jpg, 2, [240 168 10], orange, 0, 336, 1, 0, 4.8084, 2, 0.1755, 4.8093,137,43,88,0.7631,0
 101, 1, 191, S4-20.jpg, 2, [181 10 240], purple, 1, 424, 2, 1, 6.0149, 2, 0.6048, 6.0156,195,42,76,0.7631,1
 101, 1, 192, S3-12.jpg, 1, [181 10 240], purple, 0, 436, 1, 1, 6.2961, 1, 0.0423, 6.2969,101,33,75,0.7703,0
 101, 1, 193, S4-20.jpg, 2, [240 168 10], orange, 0, 166, 1, 0, 2.4170, 3, 0.4858, 2.4181,100,89,76,0.7631,0
 101, 1, 194, S4-20.jpg, 2, [240 168 10], orange, 0, 401, 1, 0, 5.7282, 3, 0.1527, 5.7290,95,143,91,0.7631,0
 101, 1, 195, S3-12.jpg, 1, [240 168 10], orange, 1, 237, 1, 1, 3.3838, 3, 0.2259, 3.3847,139,58,82,0.7703,0
 101, 1, 196, S3-12.jpg, 1, [240 168 10], orange, 1, 385, 1, 1, 5.5616, 2, 0.0002, 5.5626,82,39,93,0.7703,1
 101, 1, 197, S4-20.jpg, 2, [10 240 94], green, NaN, 166, 2, 1, 2.3929, 4, 0.4491, 2.3939,103,38,75,0.7631,0
 101, 1, 198, S3-12.jpg, 1, [181 10 240], purple, 0, 430, 1, 1, 6.1748, 1, 0.3367, 6.1756,97,35,100,0.7703,0
 101, 1, 199, S4-20.jpg, 2, [240 168 10], orange, 0, 158, 2, 1, 2.3025, 2, 0.2661, 2.3035,138,25,89,0.7631,0
 101, 1, 200, S4-20.jpg, 2, [181 10 240], purple, 1, 472, 2, 1, 6.8141, 2, 0.2107, 6.8151,86,33,77,0.7631,0
 101, 1, 201, S3-12.jpg, 1, [181 10 240], purple, 0, 422, 2, 0, 6.0714, 2, 0.1007, 6.0724,120,26,79,0.7703,0
 101, 1, 202, S3-12.jpg, 1, [181 10 240], purple, 0, 268, 2, 0, 3.8158, 2, 0.0002, 3.8167,117,25,76,0.7703,0
 101, 1, 203, S4-20.jpg, 2, [10 240 94], green, NaN, 353, 2, 1, 5.1399, 3, 0.3078, 5.1409,82,37,136,0.7631,0
 101, 1, 204, S4-20.jpg, 2, [240 168 10], orange, 0, 272, 1, 0, 3.8384, 3, 0.3067, 3.8393,107,47,87,0.7631,0
 101, 1, 205, S4-20.jpg, 2, [10 240 94], green, NaN, 341, 2, 1, 4.9296, 3, 0.1246, 4.9303,76,56,81,0.7631,0
 101, 1, 206, S3-12.jpg, 1, [240 168 10], orange, 1, 253, 1, 1, 3.7004, 2, 0.1720, 3.7013,79,47,112,0.7703,0
 101, 1, 207, S4-20.jpg, 2, [240 168 10], orange, 0, 342, 1, 0, 4.9537, 1, 0.9339, 4.9547,90,27,112,0.7631,0
 101, 1, 208, S4-20.jpg, 2, [240 168 10], orange, 0, 230, 1, 0, 3.3031, 2, 0.4452, 3.3045,78,39,81,0.7631,0
 101, 1, 209, S4-20.jpg, 2, [240 168 10], orange, 0, 344, 2, 1, 4.9704, 1, 0.6128, 4.9714,89,84,95,0.7631,1
 101, 1, 210, S4-20.jpg, 2, [10 240 94], green, NaN, 442, 2, 1, 6.3501, 2, 1.0265, 6.3510,195,31,93,0.7631,0
 101, 1, 211, S4-20.jpg, 2, [10 240 94], green, NaN, 325, 1, 0, 4.5327, 1, 0.3277, 4.5335,125,24,81,0.7631,0
 101, 1, 212, S4-20.jpg, 2, [181 10 240], purple, 1, 319, 1, 0, 4.5821, 1, 0.3247, 4.5830,93,26,89,0.7631,0
 101, 1, 213, S4-20.jpg, 2, [240 168 10], orange, 0, 314, 2, 1, 4.5152, 2, 1.1296, 4.5160,96,55,93,0.7631,0
 101, 1, 214, S3-12.jpg, 1, [240 168 10], orange, 1, 382, 2, 0, 5.4875, 2, 0.3265, 5.4889,96,40,82,0.7703,0
 101, 1, 215, S3-12.jpg, 1, [181 10 240], purple, 0, 356, 2, 0, 5.1097, 2, 0.4219, 5.1107,113,26,86,0.7703,0
 101, 1, 216, S4-20.jpg, 2, [240 168 10], orange, 0, 92, 1, 0, 1.3681, 2, 0.4928, 1.3690,132,73,85,0.7631,0
 101, 1, 217, S4-20.jpg, 2, [10 240 94], green, NaN, 274, 2, 1, 3.9243, 3, 0.0468, 3.9254,104,24,83,0.7631,0
 101, 1, 218, S3-12.jpg, 1, [181 10 240], purple, 0, 273, 2, 0, 3.9284, 3, 0.0354, 3.9293,97,29,117,0.7703,0
 101, 1, 219, S3-12.jpg, 1, [181 10 240], purple, 0, 253, 1, 1, 3.6678, 2, 0.4395, 3.6689,123,50,85,0.7703,0
 101, 1, 220, S4-20.jpg, 2, [181 10 240], purple, 1, 404, 1, 0, 5.7981, 1, 0.1058, 5.7990,81,44,99,0.7631,0
 101, 1, 221, S3-12.jpg, 1, [240 168 10], orange, 1, 445, 2, 0, 6.4035, 2, 0.3704, 6.4044,105,44,78,0.7703,0
 101, 1, 222, S3-12.jpg, 1, [181 10 240], purple, 0, 420, 2, 0, 5.9842, 1, 0.3969, 5.9850,85,28,89,0.7703,0
 101, 1, 223, S4-20.jpg, 2, [181 10 240], purple, 1, 286, 2, 1, 4.1076, 2, 0.2839, 4.1086,86,74,104,0.7631,0
 101, 1, 224, S3-12.jpg, 1, [181 10 240], purple, 0, 216, 1, 1, 3.1437, 1, 0.2993, 3.1446,105,50,104,0.7703,0
 101, 1, 225, S4-20.jpg, 2, [240 168 10], orange, 0, 446, 2, 1, 6.4087, 2, 0.2426, 6.4096,84,34,88,0.7631,0
 101, 1, 226, S4-20.jpg, 2, [240 168 10], orange, 0, 363, 1, 0, 5.2066, 2, 0.8931, 5.2081,82,26,86,0.7631,0
 101, 1, 227, S4-20.jpg, 2, [181 10 240], purple, 1, 269, 1, 0, 3.8719, 2, 0.1750, 3.8726,116,63,110,0.7631,0
 101, 1, 228, S4-20.jpg, 2, [240 168 10], orange, 0, 413, 2, 1, 5.9045, 2, 0.3990, 5.9056,90,45,102,0.7631,0
 101, 1, 229, S3-12.jpg, 1, [240 168 10], orange, 1, 226, 1, 1, 3.2509, 2, 0.3049, 3.2524,81,38,85,0.7703,1
 101, 1, 230, S4-20.jpg, 2, [181 10 240], purple, 1, 340, 2, 1, 4.8605, 2, 0.2379, 4.8614,80,32,81,0.7631,0
 101, 1, 231, S4-20.jpg, 2, [240 168 10], orange, 0, 504, 2, 1, 7.2382, 2, 1.2010, 7.2391,105,40,103,0.7631,0
 101, 1, 232, S4-20.jpg, 2, [240 168 10], orange, 0, 374, 2, 1, 5.3670, 2, 0.6064, 5.3679,86,48,81,0.7631,0
 101, 1, 233, S4-20.jpg, 2, [10 240 94], green, NaN, 344, 2, 1, 4.9289, 3, 0.0826, 4.9299,76,47,79,0.7631,0
 101, 1, 234, S4-20.jpg, 2, [240 168 10], orange, 0, 267, 1, 0, 3.8599, 2, 0.0233, 3.8608,89,29,78,0.7631,0
 101, 1, 235, S4-20.jpg, 2, [181 10 240], purple, 1, 320, 1, 0, 4.5676, 2, 0.2945, 4.5686,82,55,79,0.7631,0
 101, 1, 236, S4-20.jpg, 2, [181 10 240], purple, 1, 256, 1, 0, 3.6932, 3, 0.7176, 3.6942,80,29,107,0.7631,0
 101, 1, 237, S4-20.jpg, 2, [181 10 240], purple, 1, 153, 1, 0, 2.2139, 3, 0.2981, 2.2147,129,60,91,0.7631,0
 101, 1, 238, S4-20.jpg, 2, [240 168 10], orange, 0, 293, 1, 0, 4.2319, 3, 0.1991, 4.2326,93,26,90,0.7631,0
 101, 1, 239, S4-20.jpg, 2, [181 10 240], purple, 1, 210, 1, 0, 3.0623, 3, 0.2483, 3.0637,124,38,77,0.7631,0
 101, 1, 240, S4-20.jpg, 2, [181 10 240], purple, 1, 338, 2, 1, 4.9115, 2, 0.5297, 4.9124,96,32,83,0.7631,0
 101, 1, 241, S4-20.jpg, 2, [240 168 10], orange, 0, 287, 1, 0, 4.1466, 2, 0.1903, 4.1474,131,48,141,0.7631,0
 101, 1, 242, S4-20.jpg, 2, [181 10 240], purple, 1, 143, 2, 1, 2.1024, 2, 0.4240, 2.1032,97,62,107,0.7631,0
 101, 1, 243, S4-20.jpg, 2, [181 10 240], purple, 1, 318, 1, 0, 4.5804, 2, 0.2869, 4.5812,79,41,115,0.7631,0
 101, 1, 244, S4-20.jpg, 2, [181 10 240], purple, 1, 283, 2, 1, 4.0674, 2, 0.4256, 4.0683,92,27,116,0.7631,1
 101, 1, 245, S4-20.jpg, 2, [181 10 240], purple, 1, 247, 1, 0, 3.5910, 2, 0.2936, 3.5921,92,65,78,0.7631,0
 101, 1, 246, S4-20.jpg, 2, [181 10 240], purple, 1, 327, 2, 1, 4.7171, 1, 0.1812, 4.7178,111,25,87,0.7631,0
 101, 1, 247, S4-20.jpg, 2, [240 168 10], orange, 0, 281, 1, 0, 4.0999, 3, 0.2098, 4.1007,82,58,98,0.7631,0
 101, 1, 248, S4-20.jpg, 2, [240 168 10], orange, 0, 277, 1, 0, 4.0301, 3, 0.3402, 4.0308,78,29,95,0.7631,0
 101, 1, 249, S4-20.jpg, 2, [240 168 10], orange, 0, 164, 1, 0, 2.3843, 3, 0.1014, 2.3852,79,32,97,0.7631,0
 101, 1, 250, S4-20.jpg, 2, [240 168 10], orange, 0, 373, 2, 1, 5.3549, 2, 0.0003, 5.3558,95,67,94,0.7631,0
 101, 1, 251, S4-20.jpg, 2, [10 240 94], green, NaN, 369, 2, 1, 5.3284, 3, 0.3747, 5.3294,88,32,109,0.7631,0
 101, 1, 252, S4-20.jpg, 2, [240 168 10], orange, 0, 312, 2, 1, 4.4953, 1, 0.3155, 4.4962,85,37,78,0.7631,0
 101, 1, 253, S3-12.jpg, 1, [240 168 10], orange, 1, 348, 2, 0, 4.9915, 2, 0.3983, 4.9926,106,32,102,0.7703,1
 101, 1, 254, S4-20.jpg, 2, [181 10 240], purple, 1, 263, 1, 0, 3.8169, 1, 0.2294, 3.8179,94,70,103,0.7631,0
 101, 1, 255, S4-20.jpg, 2, [10 240 94], green, NaN, 280, 2, 1, 4.0487, 1, 0.9561, 4.0496,86,27,76,0.7631,0
 101, 1, 256, S3-12.jpg, 1, [181 10 240], purple, 0, 250, 2, 0, 3.5960, 2, 0.3962, 3.5969,143,65,77,0.7703,1
 101, 1, 257, S4-20.jpg, 2, [181 10 240], purple, 1, 282, 1, 0, 4.1088, 2, 0.4701, 4.1096,99,59,89,0.7631,0
 101, 1, 258, S4-20.jpg, 2, [10 240 94], green, NaN, 370, 1, 0, 5.2883, 2, 0.6139, 5.2893,115,77,99,0.7631,0
 101, 1, 259, S4-20.jpg, 2, [240 168 10], orange, 0, 493, 1, 0, 7.2307, 3, 0.5576, 7.2314,87,40,93,0.7631,0
 101, 1, 260, S4-20.jpg, 2, [240 168 10], orange, 0, 208, 1, 0, 3.0465, 3, 0.0585, 3.0474,99,30,117,0.7631,0
 101, 1, 261, S4-20.jpg, 2, [181 10 240], purple, 1, 155, 1, 0, 2.2512, 2, 0.3214, 2.2521,75,52,120,0.7631,0
 101, 1, 262, S4-20.jpg, 2, [181 10 240], purple, 1, 185, 1, 0, 2.6955, 2, 0.2855, 2.6964,114,26,87,0.7631,0
 101, 1, 263, S4-20.jpg, 2, [181 10 240], purple, 1, 204, 1, 0, 2.9156, 2, 0.2231, 2.9164,79,24,76,0.7631,0
 101, 1, 264, S4-20.jpg, 2, [240 168 10], orange, 0, 278, 1, 0, 3.9800, 3, 0.2968, 3.9808,77,24,97,0.7631,0
 101, 1, 265, S4-20.jpg, 2, [10 240 94], green, NaN, 262, 2, 1, 3.7945, 3, 0.0615, 3.7956,89,78,97,0.7631,0
 101, 1, 266, S4-20.jpg, 2, [181 10 240], purple, 1, 195, 1, 0, 2.8355, 1, 0.6361, 2.8362,83,43,100,0.7631,0
 101, 1, 267, S4-20.jpg, 2, [240 168 10], orange, 0, 307, 2, 1, 4.3879, 2, 0.3719, 4.3888,89,28,124,0.7631,0
 101, 1, 268, S4-20.jpg, 2, [181 10 240], purple, 1, 368, 2, 1, 5.3067, 2, 0.2781, 5.3075,77,52,122,0.7631,0
 101, 1, 269, S4-20.jpg, 2, [181 10 240], purple, 1, 160, 1, 0, 2.3247, 2, 0.8313, 2.3257,128,36,84,0.7631,0
 101, 1, 270, S4-20.jpg, 2, [240 168 10], orange, 0, 252, 2, 1, 3.6142, 2, 1.5107, 3.6151,98,30,79,0.7631,0
 101, 1, 271, S4-20.jpg, 2, [10 240 94], green, NaN, 137, 2, 1, 2.0075, 2, 0.4853, 2.0085,136,80,76,0.7631,0
 101, 1, 272, S4-20.jpg, 2, [181 10 240], purple, 1, 364, 2, 1, 5.2840, 1, 1.4561, 5.2854,79,52,142,0.7631,0
 101, 1, 273, S4-20.jpg, 2, [240 168 10], orange, 0, 469, 1, 0, 6.7340, 2, 0.9044, 6.7355,113,76,99,0.7631,0
 101, 1, 274, S4-20.jpg, 2, [240 168 10], orange, 0, NaN, NaN, 0, NaN, 1, 0.3850, 7.7741,88,91,84,0.7631,0
 101, 1, 275, S4-20.jpg, 2, [240 168 10], orange, 0, 212, 1, 0, 3.1145, 2, 2.6058, 3.1156,103,46,88,0.7631,0
 101, 1, 276, S3-12.jpg, 1, [240 168 10], orange, 1, 333, 2, 0, 4.7919, 2, 0.6725, 4.7927,135,24,80,0.7703,1