subID,block,trial,image,imageIdx,cueIdx,cue_string,congruent,response,accuracy,RT, cueDuration,learningRound
15,1,1, S4-20.jpg,2,2, blue,1,1,0,1.9996,1.25,1
15,1,2, S4-20.jpg,2,1, red,0,2,1,2.8826,1.8667,1
15,1,3, S4-20.jpg,2,3, yellow, NaN,2,1,2.1829,1.2667,1
15,1,4, S4-20.jpg,2,1, red,0,2,1,2.0828,1.3,1
15,1,5, S4-20.jpg,2,3, yellow, NaN,2,1,1.983,1.5,1
15,1,6, S3-12.jpg,1,1, red,1,1,1,2.0163,1.25,1
15,1,7, S4-20.jpg,2,2, blue,1,2,1,1.8497,1.25,1
15,1,8, S3-12.jpg,1,2, blue,0,1,1,2.3829,1.5167,1
15,1,9, S4-20.jpg,2,2, blue,1,2,1,2.0001,1.35,1
15,1,10, S3-12.jpg,1,1, red,1,1,1,2.0332,1.3167,1
15,1,11, S3-12.jpg,1,1, red,1,1,1,1.9329,1.2667,1
15,1,12, S3-12.jpg,1,1, red,1,1,1,2.0497,1.2833,1
15,1,13, S4-20.jpg,2,2, blue,1,2,1,2.5494,1.55,1
15,1,14, S4-20.jpg,2,3, yellow, NaN, NaN,0, NaN,1.7333,1
15,1,15, S4-20.jpg,2,2, blue,1,2,1,2.3495,1.6,1
15,1,16, S4-20.jpg,2,1, red,0,2,1,4.0323,3.25,1
15,1,17, S3-12.jpg,1,1, red,1,1,1,2.6493,1.3833,1
15,1,18, S3-12.jpg,1,3, yellow, NaN,1,1,2.8493,1.8167,1
15,1,19, S4-20.jpg,2,2, blue,1,2,1,2.3838,1.3,1
15,1,20, S4-20.jpg,2,3, yellow, NaN, NaN,0, NaN,1.4333,1
15,1,21, S3-12.jpg,1,3, yellow, NaN,1,1,1.9828,1.35,1
15,1,22, S3-12.jpg,1,1, red,1,1,1,2.1663,1.3,1
15,1,23, S3-12.jpg,1,3, yellow, NaN,1,1,2.0676,1.25,1
15,1,24, S3-12.jpg,1,1, red,1,1,1,2.2995,1.5833,1
15,1,25, S3-12.jpg,1,1, red,1,1,1,2.3328,1.6167,1
15,1,26, S3-12.jpg,1,2, blue,0,1,1,1.9662,1.25,1
15,1,27, S3-12.jpg,1,3, yellow, NaN,1,1,2.2329,1.3333,1
15,1,28, S3-12.jpg,1,1, red,1,1,1,2.3662,1.6833,1
15,1,29, S4-20.jpg,2,3, yellow, NaN,2,1,2.7827,1.3333,1
15,1,30, S3-12.jpg,1,1, red,1,1,1,2.3161,1.4,1
15,1,31, S3-12.jpg,1,1, red,1,1,1,2.1832,1.5333,1
15,1,32, S3-12.jpg,1,3, yellow, NaN,1,1,2.6158,1.5167,1
15,1,33, S4-20.jpg,2,3, yellow, NaN,1,0,3.8832,1.8833,1
15,1,34, S3-12.jpg,1,2, blue,0,1,1,2.6661,1.9167,1
15,1,35, S3-12.jpg,1,3, yellow, NaN,1,1,2.0997,1.3167,1
15,1,36, S3-12.jpg,1,1, red,1,1,1,2.0662,1.4,1
15,1,37, S4-20.jpg,2,3, yellow, NaN,1,0,2.2328,1.4667,1
15,1,38, S4-20.jpg,2,2, blue,1,2,1,2.4328,1.4667,1
15,1,39, S3-12.jpg,1,1, red,1,1,1,2.5675,1.7833,1
15,1,40, S3-12.jpg,1,3, yellow, NaN,1,1,2.75,1.4167,1
15,1,41, S4-20.jpg,2,3, yellow, NaN,2,1,2.1829,1.3667,1
15,1,42, S3-12.jpg,1,2, blue,0,1,1,2.2495,1.2667,1
15,1,43, S4-20.jpg,2,2, blue,1,2,1,2.716,1.5,1
15,1,44, S4-20.jpg,2,3, yellow, NaN,2,1,2.2495,1.4333,1
15,1,45, S4-20.jpg,2,2, blue,1,2,1,2.3328,1.6333,1
15,1,46, S4-20.jpg,2,3, yellow, NaN,2,1,2.5994,1.8,1
15,1,47, S4-20.jpg,2,2, blue,1,2,1,2.4328,1.7,1
15,1,48, S3-12.jpg,1,3, yellow, NaN,1,1,2.8327,1.85,1
15,1,49, S3-12.jpg,1,3, yellow, NaN,1,1,2.7343,1.45,1
15,1,50, S4-20.jpg,2,2, blue,1,2,1,3.1494,1.9333,1
15,1,51, S4-20.jpg,2,2, blue,1,2,1,2.3494,1.4833,1
15,1,52, S4-20.jpg,2,2, blue,1,2,1,1.9996,1.35,1
15,1,53, S4-20.jpg,2,2, blue,1,2,1,2.3995,1.55,1
15,1,54, S3-12.jpg,1,1, red,1,1,1,2.1843,1.3667,1
15,1,55, S3-12.jpg,1,1, red,1,1,1,2.6493,1.5333,1
15,1,56, S4-20.jpg,2,1, red,0,2,1,2.4161,1.8333,1
15,1,57, S3-12.jpg,1,3, yellow, NaN,1,1,2.2996,1.3833,1
15,1,58, S3-12.jpg,1,1, red,1,1,1,2.3328,1.45,1
15,1,59, S3-12.jpg,1,2, blue,0,1,1,2.0665,1.2833,1
15,1,60, S3-12.jpg,1,1, red,1,1,1,2.0008,1.25,1
15,1,61, S4-20.jpg,2,1, red,0,2,1,2.8493,1.3833,1
15,1,62, S3-12.jpg,1,3, yellow, NaN,1,1,2.5016,1.7167,1
15,1,63, S4-20.jpg,2,2, blue,1,1,0,2.5828,1.9,1
15,1,64, S3-12.jpg,1,1, red,1,1,1,1.9497,1.25,1
15,1,65, S4-20.jpg,2,3, yellow, NaN,2,1,2.1829,1.6667,1
15,1,66, S4-20.jpg,2,2, blue,1,2,1,2.0829,1.4167,1
15,1,67, S4-20.jpg,2,2, blue,1,2,1,1.9846,1.3667,1
15,1,68, S3-12.jpg,1,1, red,1,1,1,2.0829,1.3333,1
15,1,69, S4-20.jpg,2,3, yellow, NaN,2,1,2.4494,1.7667,1
15,1,70, S4-20.jpg,2,3, yellow, NaN,2,1,2.233,1.75,1
15,1,71, S4-20.jpg,2,2, blue,1,2,1,2.1663,1.4833,1
15,1,72, S4-20.jpg,2,2, blue,1,1,0,0.3413,1.65,1
15,1,73, S3-12.jpg,1,1, red,1,1,1,2.0995,1.3167,1
15,1,74, S3-12.jpg,1,3, yellow, NaN,1,1,1.7329,1.2833,1
15,1,75, S4-20.jpg,2,2, blue,1,1,0,0.1114,1.5667,1