subID,block,trial,targetImage,targetIdx,coherence,respFrame,response,accuracy,RT,flickerDuration
 17, 1, 1, S1-15.jpg, 1, 0.63, 109, 1, 1, 1.4640, 1.4652
 17, 1, 2, S2-19.jpg, 2, 0.53, 157, 1, 0, 2.1050, 2.1059
 17, 1, 3, S2-19.jpg, 2, 0.63, 96, 2, 1, 1.2852, 1.2862
 17, 1, 4, S2-19.jpg, 2, 0.61, 140, 2, 1, 1.8862, 1.8877
 17, 1, 5, S2-19.jpg, 2, 0.60, 207, 1, 0, 2.7777, 2.7784
 17, 1, 6, S1-15.jpg, 1, 0.53, 177, 2, 0, 2.3669, 2.3679
 17, 1, 7, S1-15.jpg, 1, 0.60, 210, 1, 1, 2.8193, 2.8200
 17, 1, 8, S1-15.jpg, 1, 0.61, 170, 1, 1, 2.2738, 2.2747
 17, 1, 9, S2-19.jpg, 2, 0.68, 325, 2, 1, 4.3390, 4.3399
 17, 1, 10, S2-19.jpg, 2, 0.59, 256, 1, 0, 3.4193, 3.4203
 17, 1, 11, S1-15.jpg, 1, 0.56, 310, 1, 1, 4.1502, 4.1509
 17, 1, 12, S1-15.jpg, 1, 0.59, 177, 2, 0, 2.3669, 2.3679
 17, 1, 13, S2-19.jpg, 2, 0.66, 208, 2, 1, 2.7795, 2.7803
 17, 1, 14, S2-19.jpg, 2, 0.64, 158, 1, 0, 2.1136, 2.1146
 17, 1, 15, S1-15.jpg, 1, 0.53, 143, 2, 0, 1.9265, 1.9272
 17, 1, 16, S1-15.jpg, 1, 0.64, 193, 1, 1, 2.5938, 2.5946
 17, 1, 17, S2-19.jpg, 2, 0.63, 270, 2, 1, 3.6067, 3.6079
 17, 1, 18, S2-19.jpg, 2, 0.67, 199, 1, 0, 2.6717, 2.6724
 17, 1, 19, S2-19.jpg, 2, 0.61, 101, 1, 0, 1.3675, 1.3682
 17, 1, 20, S1-15.jpg, 1, 0.63, 138, 1, 1, 1.8603, 1.8610
 17, 1, 21, S1-15.jpg, 1, 0.60, 101, 2, 0, 1.3540, 1.3550
 17, 1, 22, S2-19.jpg, 2, 0.69, 83, 2, 1, 1.1133, 1.1143
 17, 1, 23, S2-19.jpg, 2, 0.67, 249, 1, 0, 3.3397, 3.3405
 17, 1, 24, S1-15.jpg, 1, 0.61, 196, 1, 1, 2.6205, 2.6217
 17, 1, 25, S2-19.jpg, 2, 0.72, 203, 2, 1, 2.7123, 2.7138
 17, 1, 26, S1-15.jpg, 1, 0.60, 104, 2, 0, 1.3910, 1.3917
 17, 1, 27, S1-15.jpg, 1, 0.67, 107, 2, 0, 1.4338, 1.4346
 17, 1, 28, S1-15.jpg, 1, 0.64, 347, 2, 0, 4.6328, 4.6346
 17, 1, 29, S1-15.jpg, 1, 0.73, 70, 1, 1, 0.9400, 0.9408
 17, 1, 30, S1-15.jpg, 1, 0.66, 166, 2, 0, 2.2332, 2.2338
 17, 1, 31, S2-19.jpg, 2, 0.70, 215, 1, 0, 2.8736, 2.8744
 17, 1, 32, S1-15.jpg, 1, 0.68, 153, 1, 1, 2.0471, 2.0486
 17, 1, 33, S1-15.jpg, 1, 0.71, 213, 1, 1, 2.8448, 2.8458
 17, 1, 34, S1-15.jpg, 1, 0.68, 91, 1, 1, 1.2200, 1.2210
 17, 1, 35, S1-15.jpg, 1, 0.69, 229, 1, 1, 3.0724, 3.0731
 17, 1, 36, S2-19.jpg, 2, 0.69, 155, 1, 0, 2.0873, 2.0880
 17, 1, 37, S2-19.jpg, 2, 0.74, 179, 2, 1, 2.3934, 2.3944
 17, 1, 38, S1-15.jpg, 1, 0.67, 158, 1, 1, 2.1128, 2.1143
 17, 1, 39, S1-15.jpg, 1, 0.67, 163, 2, 0, 2.1779, 2.1789
 17, 1, 40, S2-19.jpg, 2, 0.70, 124, 1, 0, 1.6726, 1.6733
 17, 1, 41, S2-19.jpg, 2, 0.73, 109, 2, 1, 1.4609, 1.4618
 17, 1, 42, S1-15.jpg, 1, 0.66, 277, 1, 1, 3.6996, 3.7006
 17, 1, 43, S2-19.jpg, 2, 0.71, 78, 1, 0, 1.0482, 1.0492
 17, 1, 44, S1-15.jpg, 1, 0.65, 164, 1, 1, 2.1947, 2.1957
 17, 1, 45, S2-19.jpg, 2, 0.74, 208, 2, 1, 2.7709, 2.7717
 17, 1, 46, S2-19.jpg, 2, 0.71, 202, 1, 0, 2.6915, 2.6925
 17, 1, 47, S1-15.jpg, 1, 0.71, 133, 1, 1, 1.7729, 1.7738
 17, 1, 48, S1-15.jpg, 1, 0.65, 149, 2, 0, 1.9881, 1.9890
 17, 1, 49, S2-19.jpg, 2, 0.73, 140, 2, 1, 1.8671, 1.8685
 17, 1, 50, S2-19.jpg, 2, 0.72, 294, 2, 1, 3.9377, 3.9384
 17, 1, 51, S1-15.jpg, 1, 0.70, 110, 1, 1, 1.4734, 1.4745
 17, 1, 52, S2-19.jpg, 2, 0.72, 158, 1, 0, 2.1111, 2.1123
 17, 1, 53, S1-15.jpg, 1, 0.69, 118, 2, 0, 1.5726, 1.5735
 17, 1, 54, S2-19.jpg, 2, 0.72, 167, 2, 1, 2.2486, 2.2493
 17, 1, 55, S2-19.jpg, 2, 0.72, 120, 2, 1, 1.6207, 1.6214
 17, 1, 56, S1-15.jpg, 1, 0.67, 98, 1, 1, 1.3138, 1.3148
 17, 1, 57, S1-15.jpg, 1, 0.72, 199, 2, 0, 2.6507, 2.6516
 17, 1, 58, S2-19.jpg, 2, 0.72, 104, 1, 0, 1.4003, 1.4010
 17, 1, 59, S1-15.jpg, 1, 0.75, 80, 1, 1, 1.0739, 1.0749
 17, 1, 60, S2-19.jpg, 2, 0.72, 304, 2, 1, 4.0624, 4.0634
 17, 1, 61, S1-15.jpg, 1, 0.74, 69, 1, 1, 0.9204, 0.9212
 17, 1, 62, S2-19.jpg, 2, 0.72, 79, 1, 0, 1.0523, 1.0532
 17, 1, 63, S2-19.jpg, 2, 0.71, 92, 2, 1, 1.2436, 1.2450
 17, 1, 64, S2-19.jpg, 2, 0.73, 203, 2, 1, 2.7100, 2.7109
 17, 1, 65, S2-19.jpg, 2, 0.70, 179, 2, 1, 2.3840, 2.3850
 17, 1, 66, S2-19.jpg, 2, 0.72, 104, 1, 0, 1.3878, 1.3888
 17, 1, 67, S1-15.jpg, 1, 0.73, 119, 1, 1, 1.5882, 1.5891
 17, 1, 68, S1-15.jpg, 1, 0.66, 99, 2, 0, 1.3217, 1.3227
 17, 1, 69, S1-15.jpg, 1, 0.72, 266, 2, 0, 3.5454, 3.5469
 17, 1, 70, S2-19.jpg, 2, 0.73, 87, 1, 0, 1.1628, 1.1643
 17, 1, 71, S2-19.jpg, 2, 0.69, 125, 1, 0, 1.6652, 1.6665
 17, 1, 72, S2-19.jpg, 2, 0.73, 186, 1, 0, 2.4974, 2.4981
 17, 1, 73, S2-19.jpg, 2, 0.71, 106, 1, 0, 1.4208, 1.4217
 17, 1, 74, S1-15.jpg, 1, 0.68, 101, 2, 0, 1.3619, 1.3626
 17, 1, 75, S2-19.jpg, 2, 0.74, 366, 2, 1, 4.8863, 4.8873
 17, 1, 76, S2-19.jpg, 2, 0.73, 137, 2, 1, 1.8256, 1.8265
 17, 1, 77, S1-15.jpg, 1, 0.74, 200, 2, 0, 2.6700, 2.6710
 17, 1, 78, S1-15.jpg, 1, 0.69, 225, 2, 0, 3.0144, 3.0151
 17, 1, 79, S1-15.jpg, 1, 0.77, 90, 1, 1, 1.2211, 1.2218
 17, 1, 80, S1-15.jpg, 1, 0.70, 204, 1, 1, 2.7401, 2.7408
 17, 1, 81, S2-19.jpg, 2, 0.73, 320, 1, 0, 4.2732, 4.2741
 17, 1, 82, S2-19.jpg, 2, 0.73, 230, 1, 0, 3.0626, 3.0636
 17, 1, 83, S1-15.jpg, 1, 0.76, 129, 2, 0, 1.7298, 1.7305
 17, 1, 84, S1-15.jpg, 1, 0.70, 123, 2, 0, 1.6472, 1.6482
 17, 1, 85, S1-15.jpg, 1, 0.78, 257, 1, 1, 3.4220, 3.4229
 17, 1, 86, S2-19.jpg, 2, 0.73, 155, 2, 1, 2.0626, 2.0639
 17, 1, 87, S2-19.jpg, 2, 0.75, 142, 2, 1, 1.8921, 1.8932
 17, 1, 88, S1-15.jpg, 1, 0.71, 254, 2, 0, 3.4008, 3.4017
 17, 1, 89, S2-19.jpg, 2, 0.74, 85, 1, 0, 1.1407, 1.1416
 17, 1, 90, S1-15.jpg, 1, 0.71, 116, 1, 1, 1.5547, 1.5556
 17, 1, 91, S2-19.jpg, 2, 0.76, 178, 2, 1, 2.3752, 2.3761
 17, 1, 92, S1-15.jpg, 1, 0.71, 118, 2, 0, 1.5714, 1.5729
 17, 1, 93, S1-15.jpg, 1, 0.77, 164, 1, 1, 2.1831, 2.1841
 17, 1, 94, S2-19.jpg, 2, 0.73, 137, 1, 0, 1.8287, 1.8296
 17, 1, 95, S2-19.jpg, 2, 0.75, 99, 2, 1, 1.3180, 1.3190
 17, 1, 96, S1-15.jpg, 1, 0.72, 161, 1, 1, 2.1596, 2.1603
 17, 1, 97, S1-15.jpg, 1, 0.76, 108, 1, 1, 1.4471, 1.4481
 17, 1, 98, S2-19.jpg, 2, 0.73, 93, 2, 1, 1.2488, 1.2497
 17, 1, 99, S1-15.jpg, 1, 0.76, 95, 2, 0, 1.2832, 1.2839
 17, 1, 100, S2-19.jpg, 2, 0.73, 72, 1, 0, 0.9678, 0.9688