subID,block,trial,image,imageIdx,cueIdx,cue_string,congruent,response,accuracy,RT,cueDuration,learningRound
14,1,1, S3-12.jpg,1,1, purple,1,1,1,2.5343,1.5667,2
14,1,2, S3-12.jpg,1,1, purple,1,1,1,1.9901,1.3,2
14,1,3, S3-12.jpg,1,3, orange, NaN,1,1,2.0379,1.3833,2
14,1,4, S3-12.jpg,1,3, orange, NaN,1,1,1.9752,1.25,2
14,1,5, S4-20.jpg,2,3, orange, NaN,2,1,2.2796,1.55,2
14,1,6, S3-12.jpg,1,2, green,0,1,1,2.4364,1.25,2
14,1,7, S3-12.jpg,1,1, purple,1,1,1,2.4404,1.6167,2
14,1,8, S3-12.jpg,1,3, orange, NaN,1,1,2.0876,1.35,2
14,1,9, S3-12.jpg,1,3, orange, NaN,1,1,1.8668,1.25,2
14,1,10, S4-20.jpg,2,3, orange, NaN,2,1,2.1839,1.4667,2
14,1,11, S3-12.jpg,1,2, green,0,1,1,2.1923,1.25,2
14,1,12, S3-12.jpg,1,3, orange, NaN,1,1,2.1218,1.5333,2
14,1,13, S4-20.jpg,2,1, purple,0,2,1,2.0358,1.4333,2
14,1,14, S3-12.jpg,1,1, purple,1,1,1,2.6588,1.6,2
14,1,15, S4-20.jpg,2,1, purple,0,2,1,2.2746,1.5167,2
14,1,16, S4-20.jpg,2,1, purple,0,2,1,2.0353,1.3667,2
14,1,17, S4-20.jpg,2,1, purple,0,2,1,1.8797,1.4167,2
14,1,18, S3-12.jpg,1,2, green,0,1,1,1.8794,1.25,2
14,1,19, S3-12.jpg,1,2, green,0,1,1,2.3544,1.4833,2
14,1,20, S4-20.jpg,2,2, green,1,2,1,1.7973,1.25,2
14,1,21, S3-12.jpg,1,2, green,0,1,1,2.2798,1.4,2
14,1,22, S4-20.jpg,2,3, orange, NaN,2,1,2.2961,1.5,2
14,1,23, S4-20.jpg,2,2, green,1,2,1,1.973,1.2833,2
14,1,24, S4-20.jpg,2,3, orange, NaN,2,1,2.1062,1.25,2
14,1,25, S3-12.jpg,1,2, green,0,1,1,1.9951,1.3333,2
14,1,26, S4-20.jpg,2,1, purple,0,2,1,3.9045,3.25,2
14,1,27, S4-20.jpg,2,2, green,1,2,1,2.2395,1.5833,2
14,1,28, S4-20.jpg,2,1, purple,0,2,1,2.0939,1.45,2
14,1,29, S4-20.jpg,2,2, green,1,2,1,1.8997,1.25,2
14,1,30, S4-20.jpg,2,3, orange, NaN,2,1,1.8929,1.3167,2
14,1,1, S3-12.jpg,1,1, purple,1,1,1,2.3326,1.5667,2
14,1,2, S3-12.jpg,1,1, purple,1,1,1,2.1859,1.3,2
14,1,3, S3-12.jpg,1,3, orange, NaN,1,1,2.2278,1.3833,2
14,1,4, S3-12.jpg,1,3, orange, NaN,1,1,1.9265,1.25,2
14,1,5, S4-20.jpg,2,3, orange, NaN,2,1,2.2345,1.55,2
14,1,6, S3-12.jpg,1,2, green,0,1,1,2.5002,1.25,2
14,1,7, S3-12.jpg,1,1, purple,1,1,1,2.3587,1.6167,2
14,1,8, S3-12.jpg,1,3, orange, NaN,1,1,1.9863,1.35,2
14,1,9, S3-12.jpg,1,3, orange, NaN,1,1,2.1871,1.25,2
14,1,10, S4-20.jpg,2,3, orange, NaN,2,1,2.2486,1.4667,2
14,1,11, S3-12.jpg,1,2, green,0,1,1,1.9837,1.25,2
14,1,12, S3-12.jpg,1,3, orange, NaN,1,1,2.1944,1.5333,2
14,1,13, S4-20.jpg,2,1, purple,0,2,1,2.5456,1.4333,2
14,1,14, S3-12.jpg,1,1, purple,1,1,1,2.6587,1.6,2
14,1,15, S4-20.jpg,2,1, purple,0,2,1,2.267,1.5167,2
14,1,16, S4-20.jpg,2,1, purple,0,2,1,2.105,1.3667,2
14,1,17, S4-20.jpg,2,1, purple,0,2,1,2.2009,1.4167,2
14,1,18, S3-12.jpg,1,2, green,0,1,1,1.9264,1.25,2
14,1,19, S3-12.jpg,1,2, green,0,1,1,2.1542,1.4833,2
14,1,20, S4-20.jpg,2,2, green,1,2,1,2.1732,1.25,2
14,1,21, S3-12.jpg,1,2, green,0,1,1,2.4743,1.4,2
14,1,22, S4-20.jpg,2,3, orange, NaN,2,1,2.2498,1.5,2
14,1,23, S4-20.jpg,2,2, green,1,2,1,2.0793,1.2833,2
14,1,24, S4-20.jpg,2,3, orange, NaN,2,1,1.9298,1.25,2
14,1,25, S3-12.jpg,1,2, green,0,1,1,1.9997,1.3333,2
14,1,26, S4-20.jpg,2,1, purple,0,2,1,4.0926,3.25,2
14,1,27, S4-20.jpg,2,2, green,1,2,1,2.377,1.5833,2
14,1,28, S4-20.jpg,2,1, purple,0,2,1,2.226,1.45,2
14,1,29, S4-20.jpg,2,2, green,1,2,1,1.9474,1.25,2
14,1,30, S4-20.jpg,2,3, orange, NaN,2,1,1.9599,1.3167,2
14,1,1, S3-12.jpg,1,1, purple,1,1,1,2.2882,1.5667,2
14,1,2, S3-12.jpg,1,1, purple,1,1,1,2.1069,1.3,2
14,1,3, S3-12.jpg,1,3, orange, NaN,1,1,2.0355,1.3833,2
14,1,4, S3-12.jpg,1,3, orange, NaN,1,1,1.9672,1.25,2
14,1,5, S4-20.jpg,2,3, orange, NaN,2,1,2.1971,1.55,2
14,1,6, S3-12.jpg,1,2, green,0,1,1,2.0013,1.25,2
14,1,7, S3-12.jpg,1,1, purple,1,1,1,2.6255,1.6167,2
14,1,8, S3-12.jpg,1,3, orange, NaN,1,1,2.034,1.35,2
14,1,9, S3-12.jpg,1,3, orange, NaN,1,1,1.8777,1.25,2
14,1,10, S4-20.jpg,2,3, orange, NaN,2,1,2.1899,1.4667,2
14,1,11, S3-12.jpg,1,2, green,0,1,1,2.232,1.25,2
14,1,12, S3-12.jpg,1,3, orange, NaN,1,1,2.2657,1.5333,2
14,1,13, S4-20.jpg,2,1, purple,0,2,1,2.1865,1.4333,2
14,1,14, S3-12.jpg,1,1, purple,1,1,1,2.3466,1.6,2
14,1,15, S4-20.jpg,2,1, purple,0,2,1,2.187,1.5167,2
14,1,16, S4-20.jpg,2,1, purple,0,2,1,2.0362,1.3667,2
14,1,17, S4-20.jpg,2,1, purple,0,2,1,2.0077,1.4167,2
14,1,18, S3-12.jpg,1,2, green,0,1,1,1.9471,1.25,2
14,1,19, S3-12.jpg,1,2, green,0,1,1,2.2692,1.4833,2
14,1,20, S4-20.jpg,2,2, green,1,2,1,1.9006,1.25,2
14,1,21, S3-12.jpg,1,2, green,0,1,1,2.3711,1.4,2
14,1,22, S4-20.jpg,2,3, orange, NaN,2,1,2.5058,1.5,2
14,1,23, S4-20.jpg,2,2, green,1,2,1,1.9957,1.2833,2
14,1,24, S4-20.jpg,2,3, orange, NaN,2,1,2.0365,1.25,2
14,1,25, S3-12.jpg,1,2, green,0,1,1,1.9867,1.3333,2
14,1,26, S4-20.jpg,2,1, purple,0,2,1,3.879,3.25,2
14,1,27, S4-20.jpg,2,2, green,1,2,1,2.3212,1.5833,2
14,1,28, S4-20.jpg,2,1, purple,0,2,1,1.9999,1.45,2
14,1,29, S4-20.jpg,2,2, green,1,2,1,1.8274,1.25,2
14,1,30, S4-20.jpg,2,3, orange, NaN,2,1,1.7998,1.3167,2
14,1,1, S3-12.jpg,1,1, purple,1,1,1,2.6258,1.5667,2
14,1,2, S3-12.jpg,1,1, purple,1,1,1,2.2648,1.3,2
14,1,3, S3-12.jpg,1,3, orange, NaN,1,1,2.0413,1.3833,2
14,1,4, S3-12.jpg,1,3, orange, NaN,1,1,1.8075,1.25,2
14,1,5, S4-20.jpg,2,3, orange, NaN,2,1,2.1898,1.55,2
14,1,6, S3-12.jpg,1,2, green,0,1,1,1.9432,1.25,2
14,1,7, S3-12.jpg,1,1, purple,1,1,1,2.4265,1.6167,2
14,1,8, S3-12.jpg,1,3, orange, NaN,1,1,1.9993,1.35,2
14,1,9, S3-12.jpg,1,3, orange, NaN,1,1,1.9066,1.25,2
14,1,10, S4-20.jpg,2,3, orange, NaN,2,1,2.2311,1.4667,2
14,1,11, S3-12.jpg,1,2, green,0,1,1,1.8932,1.25,2
14,1,12, S3-12.jpg,1,3, orange, NaN,1,1,2.3338,1.5333,2
14,1,13, S4-20.jpg,2,1, purple,0,2,1,2.1735,1.4333,2
14,1,14, S3-12.jpg,1,1, purple,1,1,1,2.3458,1.6,2
14,1,15, S4-20.jpg,2,1, purple,0,2,1,2.2466,1.5167,2
14,1,16, S4-20.jpg,2,1, purple,0,2,1,1.9376,1.3667,2
14,1,17, S4-20.jpg,2,1, purple,0,2,1,2.0894,1.4167,2
14,1,18, S3-12.jpg,1,2, green,0,1,1,1.8399,1.25,2
14,1,19, S3-12.jpg,1,2, green,0,1,1,2.5393,1.4833,2
14,1,20, S4-20.jpg,2,2, green,1,2,1,1.9525,1.25,2
14,1,21, S3-12.jpg,1,2, green,0,1,1,2.0889,1.4,2
14,1,22, S4-20.jpg,2,3, orange, NaN,2,1,2.2631,1.5,2
14,1,23, S4-20.jpg,2,2, green,1,2,1,1.8261,1.2833,2
14,1,24, S4-20.jpg,2,3, orange, NaN,2,1,1.8205,1.25,2
14,1,25, S3-12.jpg,1,2, green,0,1,1,2.3988,1.3333,2
14,1,26, S4-20.jpg,2,1, purple,0,2,1,3.9213,3.25,2
14,1,27, S4-20.jpg,2,2, green,1,2,1,2.2801,1.5833,2
14,1,28, S4-20.jpg,2,1, purple,0,2,1,2.1536,1.45,2
14,1,29, S4-20.jpg,2,2, green,1,2,1,2.0604,1.25,2
14,1,30, S4-20.jpg,2,3, orange, NaN,2,1,2.083,1.3167,2
14,1,1, S3-12.jpg,1,1, purple,1,1,1,2.3598,1.5667,2
14,1,2, S3-12.jpg,1,1, purple,1,1,1,2.2539,1.3,2
14,1,3, S3-12.jpg,1,3, orange, NaN,1,1,2.3977,1.3833,2
14,1,4, S3-12.jpg,1,3, orange, NaN,1,1,2.2504,1.25,2
14,1,5, S4-20.jpg,2,3, orange, NaN,2,1,2.3071,1.55,2
14,1,6, S3-12.jpg,1,2, green,0,1,1,1.9334,1.25,2
14,1,7, S3-12.jpg,1,1, purple,1,1,1,2.4201,1.6167,2
14,1,8, S3-12.jpg,1,3, orange, NaN,1,1,2.1854,1.35,2
14,1,9, S3-12.jpg,1,3, orange, NaN,1,1,2.0353,1.25,2
14,1,10, S4-20.jpg,2,3, orange, NaN,2,1,2.1941,1.4667,2
14,1,11, S3-12.jpg,1,2, green,0,1,1,1.8116,1.25,2
14,1,12, S3-12.jpg,1,3, orange, NaN,1,1,2.1555,1.5333,2
14,1,13, S4-20.jpg,2,1, purple,0,2,1,2.0708,1.4333,2
14,1,14, S3-12.jpg,1,1, purple,1,1,1,2.2934,1.6,2
14,1,15, S4-20.jpg,2,1, purple,0,2,1,2.3473,1.5167,2
14,1,16, S4-20.jpg,2,1, purple,0,2,1,1.9858,1.3667,2
14,1,17, S4-20.jpg,2,1, purple,0,2,1,2.0927,1.4167,2
14,1,18, S3-12.jpg,1,2, green,0,1,1,1.8672,1.25,2
14,1,19, S3-12.jpg,1,2, green,0,1,1,2.187,1.4833,2
14,1,20, S4-20.jpg,2,2, green,1,2,1,1.9335,1.25,2
14,1,21, S3-12.jpg,1,2, green,0,1,1,2.0371,1.4,2
14,1,22, S4-20.jpg,2,3, orange, NaN,2,1,2.2446,1.5,2
14,1,23, S4-20.jpg,2,2, green,1,2,1,1.987,1.2833,2
14,1,24, S4-20.jpg,2,3, orange, NaN,2,1,2.186,1.25,2
14,1,25, S3-12.jpg,1,2, green,0,1,1,2.213,1.3333,2
14,1,26, S4-20.jpg,2,1, purple,0,2,1,3.9046,3.25,2
14,1,27, S4-20.jpg,2,2, green,1,2,1,2.1987,1.5833,2
14,1,28, S4-20.jpg,2,1, purple,0,2,1,2.2722,1.45,2
14,1,29, S4-20.jpg,2,2, green,1,2,1,1.9586,1.25,2
14,1,30, S4-20.jpg,2,3, orange, NaN,2,1,2.1867,1.3167,2
14,1,1, S3-12.jpg,1,1, purple,1,1,1,2.6522,1.5667,2
14,1,2, S3-12.jpg,1,1, purple,1,1,1,2.0812,1.3,2
14,1,3, S3-12.jpg,1,3, orange, NaN,1,1,2.2535,1.3833,2
14,1,4, S3-12.jpg,1,3, orange, NaN,1,1,2.0923,1.25,2
14,1,5, S4-20.jpg,2,3, orange, NaN,2,1,2.439,1.55,2
14,1,6, S3-12.jpg,1,2, green,0,1,1,2.1807,1.25,2
14,1,7, S3-12.jpg,1,1, purple,1,1,1,2.7058,1.6167,2
14,1,8, S3-12.jpg,1,3, orange, NaN,1,1,2.1544,1.35,2
14,1,9, S3-12.jpg,1,3, orange, NaN,1,1,2.1931,1.25,2
14,1,10, S4-20.jpg,2,3, orange, NaN,2,1,2.6661,1.4667,2
14,1,11, S3-12.jpg,1,2, green,0,1,1,2.6498,1.25,2
14,1,12, S3-12.jpg,1,3, orange, NaN,1,1,2.301,1.5333,2
14,1,13, S4-20.jpg,2,1, purple,0,2,1,2.3037,1.4333,2
14,1,14, S3-12.jpg,1,1, purple,1,1,1,2.2973,1.6,2
14,1,15, S4-20.jpg,2,1, purple,0,2,1,2.5858,1.5167,2
14,1,16, S4-20.jpg,2,1, purple,0,2,1,2.1065,1.3667,2
14,1,17, S4-20.jpg,2,1, purple,0,2,1,2.5394,1.4167,2
14,1,18, S3-12.jpg,1,2, green,0,1,1,2.0332,1.25,2
14,1,19, S3-12.jpg,1,2, green,0,1,1,2.1168,1.4833,2
14,1,20, S4-20.jpg,2,2, green,1,2,1,1.9826,1.25,2
14,1,21, S3-12.jpg,1,2, green,0,1,1,2.2308,1.4,2
14,1,22, S4-20.jpg,2,3, orange, NaN,2,1,2.0806,1.5,2
14,1,23, S4-20.jpg,2,2, green,1,2,1,2.1976,1.2833,2
14,1,24, S4-20.jpg,2,3, orange, NaN,2,1,2.0336,1.25,2
14,1,25, S3-12.jpg,1,2, green,0,1,1,2.3328,1.3333,2
14,1,26, S4-20.jpg,2,1, purple,0,2,1,3.9179,3.25,2
14,1,27, S4-20.jpg,2,2, green,1,2,1,2.6001,1.5833,2
14,1,28, S4-20.jpg,2,1, purple,0,2,1,2.5384,1.45,2
14,1,29, S4-20.jpg,2,2, green,1,2,1,2.2388,1.25,2
14,1,30, S4-20.jpg,2,3, orange, NaN,2,1,2.1869,1.3167,2
14,1,1, S3-12.jpg,1,1, purple,1,1,1,2.4129,1.5667,2
14,1,2, S3-12.jpg,1,1, purple,1,1,1,2.0796,1.3,2
14,1,3, S3-12.jpg,1,3, orange, NaN,1,1,2.0381,1.3833,2
14,1,4, S3-12.jpg,1,3, orange, NaN,1,1,2.0336,1.25,2
14,1,5, S4-20.jpg,2,3, orange, NaN,2,1,2.1729,1.55,2
14,1,6, S3-12.jpg,1,2, green,0,1,1,1.9327,1.25,2
14,1,7, S3-12.jpg,1,1, purple,1,1,1,2.4662,1.6167,2
14,1,8, S3-12.jpg,1,3, orange, NaN,1,1,2.1726,1.35,2
14,1,9, S3-12.jpg,1,3, orange, NaN,1,1,1.8772,1.25,2
14,1,10, S4-20.jpg,2,3, orange, NaN,2,1,2.1857,1.4667,2
14,1,11, S3-12.jpg,1,2, green,0,1,1,2.2396,1.25,2
14,1,12, S3-12.jpg,1,3, orange, NaN,1,1,2.2255,1.5333,2
14,1,13, S4-20.jpg,2,1, purple,0,2,1,2.2545,1.4333,2
14,1,14, S3-12.jpg,1,1, purple,1,1,1,2.4256,1.6,2
14,1,15, S4-20.jpg,2,1, purple,0,2,1,2.1555,1.5167,2
14,1,16, S4-20.jpg,2,1, purple,0,2,1,1.9591,1.3667,2
14,1,17, S4-20.jpg,2,1, purple,0,2,1,1.968,1.4167,2
14,1,18, S3-12.jpg,1,2, green,0,1,1,2.0152,1.25,2
14,1,19, S3-12.jpg,1,2, green,0,1,1,2.0382,1.4833,2
14,1,20, S4-20.jpg,2,2, green,1,2,1,2.0065,1.25,2
14,1,21, S3-12.jpg,1,2, green,0,1,1,2.0805,1.4,2
14,1,22, S4-20.jpg,2,3, orange, NaN,2,1,2.0952,1.5,2
14,1,23, S4-20.jpg,2,2, green,1,2,1,1.9601,1.2833,2
14,1,24, S4-20.jpg,2,3, orange, NaN,2,1,1.9638,1.25,2
14,1,25, S3-12.jpg,1,2, green,0,1,1,2.5624,1.3333,2
14,1,26, S4-20.jpg,2,1, purple,0,2,1,3.9893,3.25,2
14,1,27, S4-20.jpg,2,2, green,1,2,1,2.3772,1.5833,2
14,1,28, S4-20.jpg,2,1, purple,0,2,1,2.145,1.45,2
14,1,29, S4-20.jpg,2,2, green,1,2,1,1.918,1.25,2
14,1,30, S4-20.jpg,2,3, orange, NaN,2,1,1.8406,1.3167,2
14,1,1, S3-12.jpg,1,1, purple,1,1,1,2.352,1.5667,2
14,1,2, S3-12.jpg,1,1, purple,1,1,1,1.9996,1.3,2
14,1,3, S3-12.jpg,1,3, orange, NaN,1,1,2.2531,1.3833,2
14,1,4, S3-12.jpg,1,3, orange, NaN,1,1,1.8923,1.25,2
14,1,5, S4-20.jpg,2,3, orange, NaN,2,1,2.2692,1.55,2
14,1,6, S3-12.jpg,1,2, green,0,1,1,2.0448,1.25,2
14,1,7, S3-12.jpg,1,1, purple,1,1,1,2.446,1.6167,2
14,1,8, S3-12.jpg,1,3, orange, NaN,1,1,2.3187,1.35,2
14,1,9, S3-12.jpg,1,3, orange, NaN,1,1,2.1732,1.25,2
14,1,10, S4-20.jpg,2,3, orange, NaN,2,1,2.0924,1.4667,2
14,1,11, S3-12.jpg,1,2, green,0,1,1,2.0582,1.25,2
14,1,12, S3-12.jpg,1,3, orange, NaN,1,1,2.2417,1.5333,2
14,1,13, S4-20.jpg,2,1, purple,0,2,1,2.3985,1.4333,2
14,1,14, S3-12.jpg,1,1, purple,1,1,1,2.6643,1.6,2
14,1,15, S4-20.jpg,2,1, purple,0,2,1,2.2267,1.5167,2
14,1,16, S4-20.jpg,2,1, purple,0,2,1,1.9589,1.3667,2
14,1,17, S4-20.jpg,2,1, purple,0,2,1,1.9061,1.4167,2
14,1,18, S3-12.jpg,1,2, green,0,1,1,2.0123,1.25,2
14,1,19, S3-12.jpg,1,2, green,0,1,1,2.2554,1.4833,2
14,1,20, S4-20.jpg,2,2, green,1,2,1,1.986,1.25,2
14,1,21, S3-12.jpg,1,2, green,0,1,1,2.2398,1.4,2
14,1,22, S4-20.jpg,2,3, orange, NaN,2,1,2.0336,1.5,2
14,1,23, S4-20.jpg,2,2, green,1,2,1,2.0333,1.2833,2
14,1,24, S4-20.jpg,2,3, orange, NaN,2,1,1.8094,1.25,2
14,1,25, S3-12.jpg,1,2, green,0,1,1,2.076,1.3333,2
14,1,26, S4-20.jpg,2,1, purple,0,2,1,3.8635,3.25,2
14,1,27, S4-20.jpg,2,2, green,1,2,1,2.1949,1.5833,2
14,1,28, S4-20.jpg,2,1, purple,0,2,1,2.0911,1.45,2
14,1,29, S4-20.jpg,2,2, green,1,2,1,1.8187,1.25,2
14,1,30, S4-20.jpg,2,3, orange, NaN,2,1,1.9709,1.3167,2
14,1,1, S3-12.jpg,1,1, purple,1,1,1,2.3214,1.5667,2
14,1,2, S3-12.jpg,1,1, purple,1,1,1,2.0445,1.3,2
14,1,3, S3-12.jpg,1,3, orange, NaN,1,1,1.8813,1.3833,2
14,1,4, S3-12.jpg,1,3, orange, NaN,1,1,2.1872,1.25,2
14,1,5, S4-20.jpg,2,3, orange, NaN,2,1,2.1398,1.55,2
14,1,6, S3-12.jpg,1,2, green,0,1,1,1.8682,1.25,2
14,1,7, S3-12.jpg,1,1, purple,1,1,1,2.2802,1.6167,2
14,1,8, S3-12.jpg,1,3, orange, NaN,1,1,2.0913,1.35,2
14,1,9, S3-12.jpg,1,3, orange, NaN,1,1,1.7862,1.25,2
14,1,10, S4-20.jpg,2,3, orange, NaN,2,1,2.0692,1.4667,2
14,1,11, S3-12.jpg,1,2, green,0,1,1,1.7712,1.25,2
14,1,12, S3-12.jpg,1,3, orange, NaN,1,1,2.0949,1.5333,2
14,1,13, S4-20.jpg,2,1, purple,0,2,1,2.2572,1.4333,2
14,1,14, S3-12.jpg,1,1, purple,1,1,1,2.5973,1.6,2
14,1,15, S4-20.jpg,2,1, purple,0,2,1,2.4037,1.5167,2
14,1,16, S4-20.jpg,2,1, purple,0,2,1,2.7421,1.3667,2
14,1,17, S4-20.jpg,2,1, purple,0,2,1,2.2176,1.4167,2
14,1,18, S3-12.jpg,1,2, green,0,1,1,1.8676,1.25,2
14,1,19, S3-12.jpg,1,2, green,0,1,1,2.6264,1.4833,2
14,1,20, S4-20.jpg,2,2, green,1,2,1,2.0343,1.25,2
14,1,21, S3-12.jpg,1,2, green,0,1,1,2.2641,1.4,2
14,1,22, S4-20.jpg,2,3, orange, NaN,2,1,2.905,1.5,2
14,1,23, S4-20.jpg,2,2, green,1,2,1,1.8051,1.2833,2
14,1,24, S4-20.jpg,2,3, orange, NaN,2,1,1.7995,1.25,2
14,1,25, S3-12.jpg,1,2, green,0,1,1,1.8568,1.3333,2
14,1,26, S4-20.jpg,2,1, purple,0,2,1,4.0442,3.25,2
14,1,27, S4-20.jpg,2,2, green,1,2,1,2.2542,1.5833,2
14,1,28, S4-20.jpg,2,1, purple,0,2,1,2.1853,1.45,2
14,1,29, S4-20.jpg,2,2, green,1,2,1,1.914,1.25,2
14,1,30, S4-20.jpg,2,3, orange, NaN,2,1,2.2567,1.3167,2
14,1,1, S3-12.jpg,1,1, purple,1,1,1,2.4796,1.5667,2
14,1,2, S3-12.jpg,1,1, purple,1,1,1,2.2867,1.3,2
14,1,3, S3-12.jpg,1,3, orange, NaN,1,1,2.3718,1.3833,2
14,1,4, S3-12.jpg,1,3, orange, NaN,1,1,2.207,1.25,2
14,1,5, S4-20.jpg,2,3, orange, NaN,2,1,2.3451,1.55,2
14,1,6, S3-12.jpg,1,2, green,0,1,1,1.8939,1.25,2
14,1,7, S3-12.jpg,1,1, purple,1,1,1,2.576,1.6167,2
14,1,8, S3-12.jpg,1,3, orange, NaN,1,1,1.924,1.35,2
14,1,9, S3-12.jpg,1,3, orange, NaN,1,1,1.8993,1.25,2
14,1,10, S4-20.jpg,2,3, orange, NaN,2,1,2.0929,1.4667,2
14,1,11, S3-12.jpg,1,2, green,0,1,1,2.0421,1.25,2
14,1,12, S3-12.jpg,1,3, orange, NaN,1,1,2.052,1.5333,2
14,1,13, S4-20.jpg,2,1, purple,0,2,1,2.0556,1.4333,2
14,1,14, S3-12.jpg,1,1, purple,1,1,1,2.12,1.6,2
14,1,15, S4-20.jpg,2,1, purple,0,2,1,2.2549,1.5167,2
14,1,16, S4-20.jpg,2,1, purple,0,2,1,1.9465,1.3667,2
14,1,17, S4-20.jpg,2,1, purple,0,2,1,1.9078,1.4167,2
14,1,18, S3-12.jpg,1,2, green,0,1,1,2.1927,1.25,2
14,1,19, S3-12.jpg,1,2, green,0,1,1,2.199,1.4833,2
14,1,20, S4-20.jpg,2,2, green,1,2,1,1.7856,1.25,2
14,1,21, S3-12.jpg,1,2, green,0,1,1,2.555,1.4,2
14,1,22, S4-20.jpg,2,3, orange, NaN,2,1,2.4034,1.5,2
14,1,23, S4-20.jpg,2,2, green,1,2,1,2.1864,1.2833,2
14,1,24, S4-20.jpg,2,3, orange, NaN,2,1,2.1921,1.25,2
14,1,25, S3-12.jpg,1,2, green,0,1,1,2.5877,1.3333,2
14,1,26, S4-20.jpg,2,1, purple,0,2,1,3.9322,3.25,2
14,1,27, S4-20.jpg,2,2, green,1,2,1,2.8128,1.5833,2
14,1,28, S4-20.jpg,2,1, purple,0,2,1,2.036,1.45,2
14,1,29, S4-20.jpg,2,2, green,1,2,1,1.839,1.25,2
14,1,30, S4-20.jpg,2,3, orange, NaN,2,1,2.3327,1.3167,2
14,1,1, S3-12.jpg,1,1, purple,1,1,1,2.3199,1.5667,2
14,1,2, S3-12.jpg,1,1, purple,1,1,1,2.0125,1.3,2
14,1,3, S3-12.jpg,1,3, orange, NaN,1,1,2.0344,1.3833,2
14,1,4, S3-12.jpg,1,3, orange, NaN,1,1,1.7864,1.25,2
14,1,5, S4-20.jpg,2,3, orange, NaN,2,1,2.2154,1.55,2
14,1,6, S3-12.jpg,1,2, green,0,1,1,2.879,1.25,2
14,1,7, S3-12.jpg,1,1, purple,1,1,1,2.2419,1.6167,2
14,1,8, S3-12.jpg,1,3, orange, NaN,1,1,2.0908,1.35,2
14,1,9, S3-12.jpg,1,3, orange, NaN,1,1,2.1575,1.25,2
14,1,10, S4-20.jpg,2,3, orange, NaN,2,1,2.1758,1.4667,2
14,1,11, S3-12.jpg,1,2, green,0,1,1,1.9462,1.25,2
14,1,12, S3-12.jpg,1,3, orange, NaN,1,1,2.2925,1.5333,2
14,1,13, S4-20.jpg,2,1, purple,0,2,1,2.2533,1.4333,2
14,1,14, S3-12.jpg,1,1, purple,1,1,1,2.4529,1.6,2
14,1,15, S4-20.jpg,2,1, purple,0,2,1,2.4793,1.5167,2
14,1,16, S4-20.jpg,2,1, purple,0,2,1,2.2035,1.3667,2
14,1,17, S4-20.jpg,2,1, purple,0,2,1,2.2247,1.4167,2
14,1,18, S3-12.jpg,1,2, green,0,1,1,1.9066,1.25,2
14,1,19, S3-12.jpg,1,2, green,0,1,1,2.0456,1.4833,2
14,1,20, S4-20.jpg,2,2, green,1,2,1,1.7198,1.25,2
14,1,21, S3-12.jpg,1,2, green,0,1,1,2.2845,1.4,2
14,1,22, S4-20.jpg,2,3, orange, NaN,2,1,2.3336,1.5,2
14,1,23, S4-20.jpg,2,2, green,1,2,1,2.0799,1.2833,2
14,1,24, S4-20.jpg,2,3, orange, NaN,2,1,1.8392,1.25,2
14,1,25, S3-12.jpg,1,2, green,0,1,1,2.0344,1.3333,2
14,1,26, S4-20.jpg,2,1, purple,0,2,1,3.8252,3.25,2
14,1,27, S4-20.jpg,2,2, green,1,2,1,2.5405,1.5833,2
14,1,28, S4-20.jpg,2,1, purple,0,2,1,2.2264,1.45,2
14,1,29, S4-20.jpg,2,2, green,1,2,1,1.8671,1.25,2
14,1,30, S4-20.jpg,2,3, orange, NaN,2,1,2.0387,1.3167,2
14,1,1, S3-12.jpg,1,1, purple,1,1,1,2.3356,1.5667,2
14,1,2, S3-12.jpg,1,1, purple,1,1,1,2.0348,1.3,2
14,1,3, S3-12.jpg,1,3, orange, NaN,1,1,2.0393,1.3833,2
14,1,4, S3-12.jpg,1,3, orange, NaN,1,1,2.2123,1.25,2
14,1,5, S4-20.jpg,2,3, orange, NaN,2,1,2.1413,1.55,2
14,1,6, S3-12.jpg,1,2, green,0,1,1,2.3618,1.25,2
14,1,7, S3-12.jpg,1,1, purple,1,1,1,2.7044,1.6167,2
14,1,8, S3-12.jpg,1,3, orange, NaN,1,1,2.3547,1.35,2
14,1,9, S3-12.jpg,1,3, orange, NaN,1,1,2.2199,1.25,2
14,1,10, S4-20.jpg,2,3, orange, NaN,2,1,2.0539,1.4667,2
14,1,11, S3-12.jpg,1,2, green,0,1,1,1.9311,1.25,2
14,1,12, S3-12.jpg,1,3, orange, NaN,1,1,2.3493,1.5333,2
14,1,13, S4-20.jpg,2,1, purple,0,2,1,1.9909,1.4333,2
14,1,14, S3-12.jpg,1,1, purple,1,1,1,2.3995,1.6,2
14,1,15, S4-20.jpg,2,1, purple,0,2,1,2.3732,1.5167,2
14,1,16, S4-20.jpg,2,1, purple,0,2,1,1.9631,1.3667,2
14,1,17, S4-20.jpg,2,1, purple,0,2,1,1.993,1.4167,2
14,1,18, S3-12.jpg,1,2, green,0,1,1,2.408,1.25,2
14,1,19, S3-12.jpg,1,2, green,0,1,1,2.2889,1.4833,2
14,1,20, S4-20.jpg,2,2, green,1,2,1,2.2203,1.25,2
14,1,21, S3-12.jpg,1,2, green,0,1,1,2.2363,1.4,2
14,1,22, S4-20.jpg,2,3, orange, NaN,2,1,2.0547,1.5,2
14,1,23, S4-20.jpg,2,2, green,1,2,1,1.8242,1.2833,2
14,1,24, S4-20.jpg,2,3, orange, NaN,2,1,1.8205,1.25,2
14,1,25, S3-12.jpg,1,2, green,0,1,1,1.9606,1.3333,2
14,1,26, S4-20.jpg,2,1, purple,0,2,1,3.7952,3.25,2
14,1,27, S4-20.jpg,2,2, green,1,2,1,2.2249,1.5833,2
14,1,28, S4-20.jpg,2,1, purple,0,2,1,2.0424,1.45,2
14,1,29, S4-20.jpg,2,2, green,1,2,1,1.8133,1.25,2
14,1,30, S4-20.jpg,2,3, orange, NaN,2,1,1.8352,1.3167,2
14,1,1, S3-12.jpg,1,1, purple,1,1,1,2.2531,1.5667,2
14,1,2, S3-12.jpg,1,1, purple,1,1,1,1.893,1.3,2
14,1,3, S3-12.jpg,1,3, orange, NaN,1,1,2.0393,1.3833,2
14,1,4, S3-12.jpg,1,3, orange, NaN,1,1,1.9262,1.25,2
14,1,5, S4-20.jpg,2,3, orange, NaN,2,1,2.3066,1.55,2
14,1,6, S3-12.jpg,1,2, green,0,1,1,1.9974,1.25,2
14,1,7, S3-12.jpg,1,1, purple,1,1,1,2.2135,1.6167,2
14,1,8, S3-12.jpg,1,3, orange, NaN,1,1,2.1627,1.35,2
14,1,9, S3-12.jpg,1,3, orange, NaN,1,1,2.1561,1.25,2
14,1,10, S4-20.jpg,2,3, orange, NaN,2,1,2.1549,1.4667,2
14,1,11, S3-12.jpg,1,2, green,0,1,1,1.9458,1.25,2
14,1,12, S3-12.jpg,1,3, orange, NaN,1,1,2.2063,1.5333,2
14,1,13, S4-20.jpg,2,1, purple,0,2,1,2.5406,1.4333,2
14,1,14, S3-12.jpg,1,1, purple,1,1,1,2.3197,1.6,2
14,1,15, S4-20.jpg,2,1, purple,0,2,1,2.4255,1.5167,2
14,1,16, S4-20.jpg,2,1, purple,0,2,1,2.1082,1.3667,2
14,1,17, S4-20.jpg,2,1, purple,0,2,1,2.4228,1.4167,2
14,1,18, S3-12.jpg,1,2, green,0,1,1,2.306,1.25,2
14,1,19, S3-12.jpg,1,2, green,0,1,1,2.2156,1.4833,2
14,1,20, S4-20.jpg,2,2, green,1,2,1,2.4861,1.25,2
14,1,21, S3-12.jpg,1,2, green,0,1,1,2.2342,1.4,2
14,1,22, S4-20.jpg,2,3, orange, NaN,2,1,2.157,1.5,2
14,1,23, S4-20.jpg,2,2, green,1,2,1,2.4795,1.2833,2
14,1,24, S4-20.jpg,2,3, orange, NaN,2,1,2.1061,1.25,2
14,1,25, S3-12.jpg,1,2, green,0,1,1,2.036,1.3333,2
14,1,26, S4-20.jpg,2,1, purple,0,2,1,3.8023,3.25,2
14,1,27, S4-20.jpg,2,2, green,1,2,1,2.2923,1.5833,2
14,1,28, S4-20.jpg,2,1, purple,0,2,1,2.1877,1.45,2
14,1,29, S4-20.jpg,2,2, green,1,2,1,2.1863,1.25,2
14,1,30, S4-20.jpg,2,3, orange, NaN,2,1,2.0073,1.3167,2
14,1,1, S3-12.jpg,1,1, purple,1,1,1,2.2266,1.5667,2
14,1,2, S3-12.jpg,1,1, purple,1,1,1,2.1539,1.3,2
14,1,3, S3-12.jpg,1,3, orange, NaN,1,1,2.2568,1.3833,2
14,1,4, S3-12.jpg,1,3, orange, NaN,1,1,1.9547,1.25,2
14,1,5, S4-20.jpg,2,3, orange, NaN,2,1,2.2007,1.55,2
14,1,6, S3-12.jpg,1,2, green,0,1,1,2.3328,1.25,2
14,1,7, S3-12.jpg,1,1, purple,1,1,1,2.4386,1.6167,2
14,1,8, S3-12.jpg,1,3, orange, NaN,1,1,1.8838,1.35,2
14,1,9, S3-12.jpg,1,3, orange, NaN,1,1,1.8906,1.25,2
14,1,10, S4-20.jpg,2,3, orange, NaN,2,1,2.0812,1.4667,2
14,1,11, S3-12.jpg,1,2, green,0,1,1,2.4026,1.25,2
14,1,12, S3-12.jpg,1,3, orange, NaN,1,1,2.2121,1.5333,2
14,1,13, S4-20.jpg,2,1, purple,0,2,1,2.0663,1.4333,2
14,1,14, S3-12.jpg,1,1, purple,1,1,1,2.7326,1.6,2
14,1,15, S4-20.jpg,2,1, purple,0,2,1,2.2783,1.5167,2
14,1,16, S4-20.jpg,2,1, purple,0,2,1,2.0265,1.3667,2
14,1,17, S4-20.jpg,2,1, purple,0,2,1,1.9596,1.4167,2
14,1,18, S3-12.jpg,1,2, green,0,1,1,2.1993,1.25,2
14,1,19, S3-12.jpg,1,2, green,0,1,1,2.1086,1.4833,2
14,1,20, S4-20.jpg,2,2, green,1,2,1,1.7191,1.25,2
14,1,21, S3-12.jpg,1,2, green,0,1,1,1.9664,1.4,2
14,1,22, S4-20.jpg,2,3, orange, NaN,2,1,2.0791,1.5,2
14,1,23, S4-20.jpg,2,2, green,1,2,1,2.0577,1.2833,2
14,1,24, S4-20.jpg,2,3, orange, NaN,2,1,1.7332,1.25,2
14,1,25, S3-12.jpg,1,2, green,0,1,1,1.8755,1.3333,2
14,1,26, S4-20.jpg,2,1, purple,0,2,1,3.8286,3.25,2
14,1,27, S4-20.jpg,2,2, green,1,2,1,2.1997,1.5833,2
14,1,28, S4-20.jpg,2,1, purple,0,2,1,2.0547,1.45,2
14,1,29, S4-20.jpg,2,2, green,1,2,1,1.9332,1.25,2
14,1,30, S4-20.jpg,2,3, orange, NaN,1,0,2.1911,1.3167,2
14,1,1, S3-12.jpg,1,1, purple,1,1,1,2.3065,1.5667,2
14,1,2, S3-12.jpg,1,1, purple,1,1,1,2.3841,1.3,2
14,1,3, S3-12.jpg,1,3, orange, NaN,1,1,2.4912,1.3833,2
14,1,4, S3-12.jpg,1,3, orange, NaN,1,1,2.2688,1.25,2
14,1,5, S4-20.jpg,2,3, orange, NaN,2,1,2.501,1.55,2
14,1,6, S3-12.jpg,1,2, green,0,1,1,2.2954,1.25,2
14,1,7, S3-12.jpg,1,1, purple,1,1,1,2.2181,1.6167,2
14,1,8, S3-12.jpg,1,3, orange, NaN,1,1,1.8568,1.35,2
14,1,9, S3-12.jpg,1,3, orange, NaN,1,1,1.947,1.25,2
14,1,10, S4-20.jpg,2,3, orange, NaN,2,1,1.9855,1.4667,2
14,1,11, S3-12.jpg,1,2, green,0,1,1,1.7005,1.25,2
14,1,12, S3-12.jpg,1,3, orange, NaN,1,1,2.4322,1.5333,2
14,1,13, S4-20.jpg,2,1, purple,0,2,1,2.2538,1.4333,2
14,1,14, S3-12.jpg,1,1, purple,1,1,1,2.946,1.6,2
14,1,15, S4-20.jpg,2,1, purple,0,2,1,2.4127,1.5167,2
14,1,16, S4-20.jpg,2,1, purple,0,2,1,2.4551,1.3667,2
14,1,17, S4-20.jpg,2,1, purple,0,2,1,2.4395,1.4167,2
14,1,18, S3-12.jpg,1,2, green,0,1,1,2.1075,1.25,2
14,1,19, S3-12.jpg,1,2, green,0,1,1,2.4253,1.4833,2
14,1,20, S4-20.jpg,2,2, green,1,2,1,2.2199,1.25,2
14,1,21, S3-12.jpg,1,2, green,0,1,1,2.5053,1.4,2
14,1,22, S4-20.jpg,2,3, orange, NaN,2,1,2.6693,1.5,2
14,1,23, S4-20.jpg,2,2, green,1,2,1,2.0187,1.2833,2
14,1,24, S4-20.jpg,2,3, orange, NaN,2,1,1.9601,1.25,2
14,1,25, S3-12.jpg,1,2, green,0,1,1,2.1992,1.3333,2
14,1,26, S4-20.jpg,2,1, purple,0,2,1,4.2707,3.25,2
14,1,27, S4-20.jpg,2,2, green,1,2,1,2.234,1.5833,2
14,1,28, S4-20.jpg,2,1, purple,0,2,1,2.0451,1.45,2
14,1,29, S4-20.jpg,2,2, green,1,2,1,1.7572,1.25,2
14,1,30, S4-20.jpg,2,3, orange, NaN,2,1,1.844,1.3167,2
14,1,1, S3-12.jpg,1,1, purple,1,1,1,2.3054,1.5667,2
14,1,2, S3-12.jpg,1,1, purple,1, NaN,0, NaN,1.3,2
14,1,3, S3-12.jpg,1,3, orange, NaN, NaN,0, NaN,1.3833,2
14,1,4, S3-12.jpg,1,3, orange, NaN,1,1,2.0375,1.25,2
14,1,5, S4-20.jpg,2,3, orange, NaN,2,1,1.9973,1.55,2
14,1,6, S3-12.jpg,1,2, green,0,1,1,1.8528,1.25,2
14,1,7, S3-12.jpg,1,1, purple,1,1,1,2.2281,1.6167,2
14,1,8, S3-12.jpg,1,3, orange, NaN,1,1,2.0552,1.35,2
14,1,9, S3-12.jpg,1,3, orange, NaN,1,1,1.894,1.25,2
14,1,10, S4-20.jpg,2,3, orange, NaN,2,1,2.1457,1.4667,2
14,1,11, S3-12.jpg,1,2, green,0,1,1,1.783,1.25,2
14,1,12, S3-12.jpg,1,3, orange, NaN,1,1,2.2254,1.5333,2
14,1,13, S4-20.jpg,2,1, purple,0,2,1,2.3077,1.4333,2
14,1,14, S3-12.jpg,1,1, purple,1,1,1,2.4196,1.6,2
14,1,15, S4-20.jpg,2,1, purple,0,2,1,1.9932,1.5167,2
14,1,16, S4-20.jpg,2,1, purple,0,1,0,1.9362,1.3667,2
14,1,17, S4-20.jpg,2,1, purple,0,2,1,1.9729,1.4167,2
14,1,18, S3-12.jpg,1,2, green,0,1,1,2.1895,1.25,2
14,1,19, S3-12.jpg,1,2, green,0,1,1,2.7162,1.4833,2
14,1,20, S4-20.jpg,2,2, green,1,2,1,2.1024,1.25,2
14,1,21, S3-12.jpg,1,2, green,0,1,1,2.2795,1.4,2
14,1,22, S4-20.jpg,2,3, orange, NaN,2,1,2.7889,1.5,2
14,1,23, S4-20.jpg,2,2, green,1,2,1,2.079,1.2833,2
14,1,24, S4-20.jpg,2,3, orange, NaN,2,1,1.8242,1.25,2
14,1,25, S3-12.jpg,1,2, green,0,1,1,1.9102,1.3333,2
14,1,26, S4-20.jpg,2,1, purple,0,2,1,3.8219,3.25,2
14,1,27, S4-20.jpg,2,2, green,1,2,1,2.2746,1.5833,2
14,1,28, S4-20.jpg,2,1, purple,0,2,1,2.2723,1.45,2
14,1,29, S4-20.jpg,2,2, green,1,2,1,1.9081,1.25,2
14,1,30, S4-20.jpg,2,3, orange, NaN,2,1,1.9983,1.3167,2
14,1,1, S3-12.jpg,1,1, purple,1,2,0,2.0357,1.5667,2
14,1,2, S3-12.jpg,1,1, purple,1,1,1,1.8661,1.3,2
14,1,3, S3-12.jpg,1,3, orange, NaN,1,1,1.8797,1.3833,2
14,1,4, S3-12.jpg,1,3, orange, NaN,1,1,1.8263,1.25,2
14,1,5, S4-20.jpg,2,3, orange, NaN,2,1,2.2668,1.55,2
14,1,6, S3-12.jpg,1,2, green,0,1,1,1.9149,1.25,2
14,1,7, S3-12.jpg,1,1, purple,1,1,1,2.2739,1.6167,2
14,1,8, S3-12.jpg,1,3, orange, NaN,1,1,2.0379,1.35,2
14,1,9, S3-12.jpg,1,3, orange, NaN,1,1,1.6794,1.25,2
14,1,10, S4-20.jpg,2,3, orange, NaN,2,1,2.1051,1.4667,2
14,1,11, S3-12.jpg,1,2, green,0,1,1,2.0063,1.25,2
14,1,12, S3-12.jpg,1,3, orange, NaN,1,1,3.1193,1.5333,2
14,1,13, S4-20.jpg,2,1, purple,0,2,1,2.0506,1.4333,2
14,1,14, S3-12.jpg,1,1, purple,1,1,1,2.2201,1.6,2
14,1,15, S4-20.jpg,2,1, purple,0,2,1,2.3735,1.5167,2
14,1,16, S4-20.jpg,2,1, purple,0,2,1,1.9454,1.3667,2
14,1,17, S4-20.jpg,2,1, purple,0,2,1,2.0517,1.4167,2
14,1,18, S3-12.jpg,1,2, green,0,1,1,1.9447,1.25,2
14,1,19, S3-12.jpg,1,2, green,0,1,1,2.0804,1.4833,2
14,1,20, S4-20.jpg,2,2, green,1,2,1,1.8424,1.25,2
14,1,21, S3-12.jpg,1,2, green,0,1,1,2.1057,1.4,2
14,1,22, S4-20.jpg,2,3, orange, NaN,2,1,2.3325,1.5,2
14,1,23, S4-20.jpg,2,2, green,1,2,1,2.079,1.2833,2
14,1,24, S4-20.jpg,2,3, orange, NaN,2,1,1.799,1.25,2
14,1,25, S3-12.jpg,1,2, green,0,1,1,2.0362,1.3333,2
14,1,26, S4-20.jpg,2,1, purple,0,2,1,3.9287,3.25,2
14,1,27, S4-20.jpg,2,2, green,1,2,1,2.3191,1.5833,2
14,1,28, S4-20.jpg,2,1, purple,0,2,1,2.2375,1.45,2
14,1,29, S4-20.jpg,2,2, green,1,2,1,1.9225,1.25,2
14,1,30, S4-20.jpg,2,3, orange, NaN,2,1,2.2007,1.3167,2
14,1,1, S3-12.jpg,1,1, purple,1,1,1,2.6265,1.5667,2
14,1,2, S3-12.jpg,1,1, purple,1,1,1,1.8408,1.3,2
14,1,3, S3-12.jpg,1,3, orange, NaN,1,1,2.0669,1.3833,2
14,1,4, S3-12.jpg,1,3, orange, NaN,1,1,1.9195,1.25,2
14,1,5, S4-20.jpg,2,3, orange, NaN,2,1,2.1465,1.55,2
14,1,6, S3-12.jpg,1,2, green,0,1,1,1.853,1.25,2
14,1,7, S3-12.jpg,1,1, purple,1,1,1,2.1594,1.6167,2
14,1,8, S3-12.jpg,1,3, orange, NaN,1,1,2.0397,1.35,2
14,1,9, S3-12.jpg,1,3, orange, NaN,1,1,1.7864,1.25,2
14,1,10, S4-20.jpg,2,3, orange, NaN,2,1,2.2796,1.4667,2
14,1,11, S3-12.jpg,1,2, green,0,1,1,1.9199,1.25,2
14,1,12, S3-12.jpg,1,3, orange, NaN,1,1,2.293,1.5333,2
14,1,13, S4-20.jpg,2,1, purple,0,2,1,1.9863,1.4333,2
14,1,14, S3-12.jpg,1,1, purple,1,1,1,2.5461,1.6,2
14,1,15, S4-20.jpg,2,1, purple,0,2,1,2.3062,1.5167,2
14,1,16, S4-20.jpg,2,1, purple,0,2,1,2.0795,1.3667,2