subID,block,trial,targetImg,targetIdx,cue_rgb,cue_string,congruent,respFrame,response,accuracy,RT,confResp,confRT,flickerDuration,noise1frames,signal1frames,noise2frames,coherence,catch_trial
 10, 1, 1, S3-12.jpg, 1, [10 144 240], blue, 0, 335, 2, 0, 5.8321, NaN, NaN, 5.8376,89,68,90,0.7703,0
 10, 1, 2, S4-20.jpg, 2, [240 37 33], red, 0, 178, 1, 0, 3.3199, 3, 1.8966, 3.3207,91,56,87,0.7324,1
 10, 1, 3, S3-12.jpg, 1, [240 37 33], red, 1, 162, 1, 1, 3.0587, 3, 1.8425, 3.0595,99,51,116,0.7703,0
 10, 1, 4, S3-12.jpg, 1, [10 144 240], blue, 0, 183, 1, 1, 3.2626, 3, 1.6873, 3.2633,86,23,85,0.7703,0
 10, 1, 5, S3-12.jpg, 1, [240 37 33], red, 1, 141, 2, 0, 2.5010, 3, 0.3282, 2.5017,101,26,84,0.7703,0
 10, 1, 6, S3-12.jpg, 1, [240 239 10], yellow, NaN, 166, 1, 1, 3.0437, 3, 0.6099, 3.0444,87,30,92,0.7703,0
 10, 1, 7, S3-12.jpg, 1, [240 239 10], yellow, NaN, 162, 2, 0, 2.9807, 2, 1.4512, 2.9815,85,37,81,0.7703,0
 10, 1, 8, S3-12.jpg, 1, [10 144 240], blue, 0, 142, 2, 0, 2.4700, 2, 0.9526, 2.4715,81,36,138,0.7703,0
 10, 1, 9, S3-12.jpg, 1, [10 144 240], blue, 0, 173, 1, 1, 3.1538, 2, 1.3328, 3.1546,107,35,77,0.7703,0
 10, 1, 10, S3-12.jpg, 1, [10 144 240], blue, 0, 166, 1, 1, 3.0742, 1, 1.4380, 3.0749,79,43,98,0.7703,0
 10, 1, 11, S3-12.jpg, 1, [240 239 10], yellow, NaN, 112, 1, 1, 2.1003, 2, 1.0249, 2.1012,75,45,79,0.7703,0
 10, 1, 12, S3-12.jpg, 1, [10 144 240], blue, 0, 225, 2, 0, 4.1179, 1, 0.5975, 4.1188,95,31,134,0.7703,0
 10, 1, 13, S3-12.jpg, 1, [240 37 33], red, 1, 220, 2, 0, 3.9741, 2, 2.5685, 3.9750,77,27,133,0.7703,0
 10, 1, 14, S3-12.jpg, 1, [10 144 240], blue, 0, 193, 1, 1, 3.3828, 2, 1.1653, 3.3837,75,54,86,0.7703,0
 10, 1, 15, S3-12.jpg, 1, [10 144 240], blue, 0, 209, 1, 1, 3.8225, 2, 0.8955, 3.8234,84,26,88,0.7703,0
 10, 1, 16, S3-12.jpg, 1, [240 37 33], red, 1, 233, 1, 1, 4.2286, 1, 1.1964, 4.2296,99,50,91,0.7703,0
 10, 1, 17, S3-12.jpg, 1, [240 239 10], yellow, NaN, 464, 2, 0, 8.1881, 1, 0.3050, 8.1896,117,32,83,0.7703,0
 10, 1, 18, S3-12.jpg, 1, [240 37 33], red, 1, 220, 1, 1, 3.9834, 2, 1.2385, 3.9843,109,25,94,0.7703,0
 10, 1, 19, S3-12.jpg, 1, [240 37 33], red, 1, 166, 1, 1, 3.0334, 2, 0.6055, 3.0345,110,73,103,0.7703,0
 10, 1, 20, S3-12.jpg, 1, [240 37 33], red, 1, 191, 1, 1, 3.4492, 2, 0.2593, 3.4499,83,24,101,0.7703,0
 10, 1, 21, S3-12.jpg, 1, [240 37 33], red, 1, 156, 1, 1, 2.8804, 2, 0.4559, 2.8819,79,45,79,0.7703,0
 10, 1, 22, S3-12.jpg, 1, [240 239 10], yellow, NaN, 203, 1, 1, 3.5813, 1, 2.1432, 3.5821,119,59,81,0.7703,0
 10, 1, 23, S3-12.jpg, 1, [240 37 33], red, 1, 243, 1, 1, 4.4253, 2, 0.3872, 4.4262,77,23,75,0.7703,0
 10, 1, 24, S3-12.jpg, 1, [240 37 33], red, 1, 209, 1, 1, 3.7498, 2, 1.0799, 3.7508,142,41,76,0.7703,1
 10, 1, 25, S3-12.jpg, 1, [240 239 10], yellow, NaN, 381, 1, 1, 6.6723, 1, 1.1172, 6.6732,84,29,97,0.7703,0
 10, 1, 26, S3-12.jpg, 1, [10 144 240], blue, 0, 421, 1, 1, 7.4039, 1, 0.6184, 7.4046,89,48,94,0.7703,0
 10, 1, 27, S3-12.jpg, 1, [240 37 33], red, 1, 313, 1, 1, 5.5988, 1, 0.7145, 5.5996,115,23,86,0.7703,0
 10, 1, 28, S3-12.jpg, 1, [240 37 33], red, 1, 372, 2, 0, 6.5891, 1, 1.4417, 6.5906,91,30,80,0.7703,0
 10, 1, 29, S3-12.jpg, 1, [240 239 10], yellow, NaN, 151, 1, 1, 2.7472, 2, 0.7787, 2.7481,115,29,106,0.7703,0
 10, 1, 30, S3-12.jpg, 1, [10 144 240], blue, 0, 369, 2, 0, 6.4996, 2, 1.2082, 6.5005,195,91,92,0.7703,0
 10, 1, 31, S3-12.jpg, 1, [10 144 240], blue, 0, 169, 2, 0, 3.1297, 3, 0.9646, 3.1307,88,23,76,0.7703,0
 10, 1, 32, S3-12.jpg, 1, [10 144 240], blue, 0, 157, 2, 0, 2.8578, 2, 0.3480, 2.8585,103,39,78,0.7703,0
 10, 1, 33, S3-12.jpg, 1, [10 144 240], blue, 0, 89, 1, 1, 1.6229, 2, 0.6682, 1.6237,94,55,86,0.7703,0
 10, 1, 34, S3-12.jpg, 1, [240 37 33], red, 1, 167, 1, 1, 3.0936, 1, 1.4565, 3.0946,78,25,120,0.7703,0
 10, 1, 35, S3-12.jpg, 1, [10 144 240], blue, 0, 192, 1, 1, 3.4810, 2, 1.3492, 3.4819,84,24,107,0.7703,0
 10, 1, 36, S3-12.jpg, 1, [240 37 33], red, 1, 174, 1, 1, 3.1889, 2, 0.6492, 3.1898,79,65,119,0.7703,0
 10, 1, 37, S3-12.jpg, 1, [240 239 10], yellow, NaN, 374, 2, 0, 6.6387, 2, 0.5294, 6.6402,105,56,87,0.7703,1
 10, 1, 38, S3-12.jpg, 1, [240 239 10], yellow, NaN, 55, 2, 0, 1.1229, 2, 0.5756, 1.1239,87,56,97,0.7703,0
 10, 1, 39, S3-12.jpg, 1, [240 37 33], red, 1, 188, 1, 1, 3.4267, 2, 0.8083, 3.4275,96,31,83,0.7703,0
 10, 1, 40, S3-12.jpg, 1, [10 144 240], blue, 0, 94, 1, 1, 1.7644, 2, 0.8501, 1.7653,110,40,83,0.7703,0
 10, 1, 41, S3-12.jpg, 1, [240 37 33], red, 1, 196, 2, 0, 3.5530, 2, 0.5873, 3.5537,80,38,195,0.7703,0
 10, 1, 42, S3-12.jpg, 1, [10 144 240], blue, 0, 65, 1, 1, 1.1350, 3, 1.3668, 1.1358,103,26,88,0.7703,0
 10, 1, 43, S3-12.jpg, 1, [240 37 33], red, 1, 60, 1, 1, 1.2221, 3, 0.9124, 1.2231,93,143,76,0.7703,0
 10, 1, 44, S3-12.jpg, 1, [10 144 240], blue, 0, 49, 1, 1, 0.9105, 3, 0.3772, 0.9115,77,25,79,0.7703,0
 10, 1, 45, S3-12.jpg, 1, [240 37 33], red, 1, 83, 1, 1, 1.6100, 4, 0.5373, 1.6109,90,44,102,0.7703,0
 10, 1, 46, S3-12.jpg, 1, [240 37 33], red, 1, 47, 1, 1, 0.9461, 4, 0.5270, 0.9468,82,32,84,0.7703,1
 10, 1, 47, S3-12.jpg, 1, [240 239 10], yellow, NaN, 51, 1, 1, 1.0286, 4, 0.4310, 1.0294,76,24,95,0.7703,0
 10, 1, 48, S3-12.jpg, 1, [10 144 240], blue, 0, 56, 1, 1, 1.1745, 4, 0.4482, 1.1754,77,34,91,0.7703,0
 10, 1, 49, S3-12.jpg, 1, [240 239 10], yellow, NaN, 47, 1, 1, 1.0072, 4, 0.3348, 1.0080,81,57,80,0.7703,0
 10, 1, 50, S3-12.jpg, 1, [240 37 33], red, 1, 82, 1, 1, 1.5704, 4, 0.2909, 1.5714,135,87,81,0.7703,0
 10, 1, 51, S3-12.jpg, 1, [240 37 33], red, 1, 88, 1, 1, 1.5807, 4, 0.5287, 1.5815,91,54,130,0.7703,0
 10, 1, 52, S3-12.jpg, 1, [240 37 33], red, 1, 47, 1, 1, 0.9644, 4, 0.6301, 0.9652,94,25,88,0.7703,0
 10, 1, 53, S3-12.jpg, 1, [10 144 240], blue, 0, 69, 1, 1, 1.2756, 4, 0.3691, 1.2763,76,37,75,0.7703,0
 10, 1, 54, S3-12.jpg, 1, [240 37 33], red, 1, 86, 1, 1, 1.6817, 4, 0.4717, 1.6826,82,70,78,0.7703,0
 10, 1, 55, S4-20.jpg, 2, [240 239 10], yellow, NaN, 85, 1, 0, 1.6500, 4, 0.5885, 1.6510,121,51,77,0.7324,1
 10, 1, 56, S3-12.jpg, 1, [240 239 10], yellow, NaN, 38, 1, 1, 0.7131, 4, 0.8063, 0.7139,98,59,89,0.7703,0
 10, 1, 57, S3-12.jpg, 1, [240 37 33], red, 1, 46, 1, 1, 0.8992, 4, 0.6659, 0.9000,141,40,100,0.7703,0
 10, 1, 58, S3-12.jpg, 1, [10 144 240], blue, 0, 53, 1, 1, 1.0393, 4, 0.4781, 1.0403,75,46,77,0.7703,0
 10, 1, 59, S3-12.jpg, 1, [240 239 10], yellow, NaN, 46, 1, 1, 0.9086, 4, 0.2626, 0.9094,80,24,90,0.7703,0
 10, 1, 60, S3-12.jpg, 1, [240 37 33], red, 1, 65, 1, 1, 1.3078, 4, 0.2640, 1.3087,90,35,102,0.7703,0
 10, 1, 61, S4-20.jpg, 2, [10 144 240], blue, 1, 91, 2, 1, 1.6350, 3, 1.6604, 1.6358,107,77,195,0.7324,0
 10, 1, 62, S3-12.jpg, 1, [240 239 10], yellow, NaN, 93, 2, 0, 1.7008, 3, 0.6641, 1.7017,86,41,76,0.7703,1
 10, 1, 63, S4-20.jpg, 2, [10 144 240], blue, 1, 155, 2, 1, 2.7976, 3, 0.3029, 2.7987,79,36,84,0.7324,0
 10, 1, 64, S3-12.jpg, 1, [240 239 10], yellow, NaN, 142, 1, 1, 2.5623, 3, 0.4200, 2.5630,130,27,121,0.7703,0
 10, 1, 65, S3-12.jpg, 1, [240 239 10], yellow, NaN, 74, 1, 1, 1.3715, 3, 0.3971, 1.3725,93,37,117,0.7703,0
 10, 1, 66, S4-20.jpg, 2, [10 144 240], blue, 1, 108, 1, 0, 1.9488, 3, 0.5608, 1.9495,88,28,104,0.7324,0
 10, 1, 67, S3-12.jpg, 1, [10 144 240], blue, 0, 57, 1, 1, 1.0669, 3, 0.1927, 1.0677,140,34,108,0.7703,0
 10, 1, 68, S3-12.jpg, 1, [240 239 10], yellow, NaN, 58, 1, 1, 1.0738, 3, 0.3737, 1.0747,84,28,87,0.7703,0
 10, 1, 69, S4-20.jpg, 2, [240 37 33], red, 0, 143, 2, 1, 2.6016, 2, 2.2394, 2.6024,83,38,87,0.7324,0
 10, 1, 70, S3-12.jpg, 1, [240 37 33], red, 1, 154, 2, 0, 2.7533, 3, 0.4081, 2.7541,134,25,92,0.7703,0
 10, 1, 71, S4-20.jpg, 2, [240 37 33], red, 0, 51, 1, 0, 0.9162, 2, 1.3871, 0.9172,82,33,80,0.7324,0
 10, 1, 72, S4-20.jpg, 2, [240 37 33], red, 0, 54, 1, 0, 0.9885, 3, 0.2443, 0.9894,78,58,99,0.7324,0
 10, 1, 73, S3-12.jpg, 1, [240 239 10], yellow, NaN, 46, 1, 1, 0.8548, 3, 2.3209, 0.8557,95,33,87,0.7703,0
 10, 1, 74, S3-12.jpg, 1, [240 37 33], red, 1, 90, 1, 1, 1.6238, 3, 0.8119, 1.6246,76,42,82,0.7703,0
 10, 1, 75, S3-12.jpg, 1, [240 239 10], yellow, NaN, 57, 1, 1, 1.0173, 3, 0.3789, 1.0180,77,43,109,0.7703,0
 10, 1, 76, S3-12.jpg, 1, [240 37 33], red, 1, 79, 1, 1, 1.4366, 1, 1.7860, 1.4374,195,33,76,0.7703,0
 10, 1, 77, S4-20.jpg, 2, [10 144 240], blue, 1, 261, 2, 1, 4.6729, 2, 1.7826, 4.6737,76,49,89,0.7324,1
 10, 1, 78, S3-12.jpg, 1, [240 37 33], red, 1, 56, 2, 0, 1.0296, 3, 0.8377, 1.0303,103,63,84,0.7703,0
 10, 1, 79, S3-12.jpg, 1, [240 239 10], yellow, NaN, 100, 2, 0, 1.7996, 3, 1.6436, 1.8004,79,39,108,0.7703,0
 10, 1, 80, S4-20.jpg, 2, [240 37 33], red, 0, 183, 2, 1, 3.2813, 3, 0.2943, 3.2821,77,65,88,0.7324,0
 10, 1, 81, S4-20.jpg, 2, [10 144 240], blue, 1, 74, 2, 1, 1.2852, 3, 0.5190, 1.2865,79,45,82,0.7324,0
 10, 1, 82, S3-12.jpg, 1, [10 144 240], blue, 0, 57, 2, 0, 1.0585, 3, 0.3447, 1.0592,84,24,80,0.7703,0
 10, 1, 83, S4-20.jpg, 2, [240 37 33], red, 0, 60, 2, 1, 1.1036, 3, 0.4471, 1.1045,100,31,94,0.7324,0
 10, 1, 84, S3-12.jpg, 1, [10 144 240], blue, 0, 72, 2, 0, 1.3321, 3, 0.4092, 1.3331,78,45,99,0.7703,0
 10, 1, 85, S4-20.jpg, 2, [10 144 240], blue, 1, 43, 2, 1, 0.7875, 3, 0.1365, 0.7882,79,66,110,0.7324,0
 10, 1, 86, S4-20.jpg, 2, [240 37 33], red, 0, 54, 2, 1, 0.9612, 3, 0.1967, 0.9621,102,81,103,0.7324,0
 10, 1, 87, S4-20.jpg, 2, [10 144 240], blue, 1, 67, 2, 1, 1.2361, 3, 0.4026, 1.2370,82,57,81,0.7324,0
 10, 1, 88, S3-12.jpg, 1, [240 37 33], red, 1, 49, 2, 0, 0.8807, 3, 0.2800, 0.8815,104,32,94,0.7703,0
 10, 1, 89, S4-20.jpg, 2, [10 144 240], blue, 1, 57, 2, 1, 1.0530, 3, 0.1635, 1.0539,78,143,80,0.7324,0
 10, 1, 90, S3-12.jpg, 1, [10 144 240], blue, 0, 102, 2, 0, 1.8336, 3, 0.1489, 1.8346,82,46,95,0.7703,0
 10, 1, 91, S3-12.jpg, 1, [10 144 240], blue, 0, 126, 1, 1, 2.2821, 3, 1.0445, 2.2835,97,76,77,0.7703,0
 10, 1, 92, S3-12.jpg, 1, [240 239 10], yellow, NaN, 160, 2, 0, 2.8836, 3, 0.5604, 2.8850,81,34,103,0.7703,0
 10, 1, 93, S3-12.jpg, 1, [10 144 240], blue, 0, 100, 2, 0, 1.7874, 2, 0.3939, 1.7883,85,63,109,0.7703,0
 10, 1, 94, S4-20.jpg, 2, [10 144 240], blue, 1, 123, 2, 1, 2.2175, 2, 1.7302, 2.2184,95,43,85,0.7324,0
 10, 1, 95, S4-20.jpg, 2, [240 37 33], red, 0, 135, 2, 1, 2.4326, 2, 1.7167, 2.4334,90,30,76,0.7324,0
 10, 1, 96, S4-20.jpg, 2, [10 144 240], blue, 1, 79, 2, 1, 1.4445, 2, 0.4469, 1.4454,94,52,119,0.7324,1
 10, 1, 97, S3-12.jpg, 1, [240 239 10], yellow, NaN, 92, 1, 1, 1.7005, 2, 0.9914, 1.7012,118,66,88,0.7703,0
 10, 1, 98, S3-12.jpg, 1, [10 144 240], blue, 0, 51, 1, 1, 0.9724, 3, 1.4399, 0.9732,137,30,87,0.7703,0
 10, 1, 99, S4-20.jpg, 2, [240 37 33], red, 0, 65, 1, 0, 1.2022, 3, 0.4472, 1.2030,128,33,122,0.7324,0
 10, 1, 100, S4-20.jpg, 2, [240 37 33], red, 0, 39, 1, 0, 0.7362, 3, 0.3434, 0.7371,122,46,95,0.7324,0
 10, 1, 101, S4-20.jpg, 2, [240 37 33], red, 0, 84, 1, 0, 1.5373, 3, 0.3321, 1.5381,78,28,140,0.7324,0
 10, 1, 102, S4-20.jpg, 2, [240 37 33], red, 0, 44, 1, 0, 0.7860, 3, 0.2895, 0.7869,80,32,80,0.7324,0
 10, 1, 103, S3-12.jpg, 1, [240 37 33], red, 1, 47, 1, 1, 0.7991, 3, 0.2782, 0.7999,94,58,78,0.7703,0
 10, 1, 104, S3-12.jpg, 1, [240 239 10], yellow, NaN, 82, 1, 1, 1.4862, 3, 0.0323, 1.4877,118,84,86,0.7703,0
 10, 1, 105, S3-12.jpg, 1, [240 239 10], yellow, NaN, 131, 1, 1, 2.3672, 1, 0.6818, 2.3680,106,83,108,0.7703,0
 10, 1, 106, S3-12.jpg, 1, [10 144 240], blue, 0, 127, 1, 1, 2.3122, 2, 1.1053, 2.3131,95,27,90,0.7703,0
 10, 1, 107, S3-12.jpg, 1, [10 144 240], blue, 0, 269, 2, 0, 4.9184, 2, 0.8735, 4.9191,116,29,84,0.7703,0
 10, 1, 108, S3-12.jpg, 1, [240 37 33], red, 1, 107, 1, 1, 1.9547, 1, 1.4400, 1.9555,87,57,96,0.7703,0
 10, 1, 109, S3-12.jpg, 1, [10 144 240], blue, 0, 108, 2, 0, 1.9195, 3, 1.0820, 1.9203,76,34,76,0.7703,0
 10, 1, 110, S3-12.jpg, 1, [240 239 10], yellow, NaN, 58, 2, 0, 1.0788, 3, 0.7959, 1.0795,79,36,101,0.7703,0
 10, 1, 111, S3-12.jpg, 1, [240 37 33], red, 1, 83, 2, 0, 1.4807, 3, 0.3782, 1.4816,99,53,100,0.7703,1
 10, 1, 112, S3-12.jpg, 1, [240 239 10], yellow, NaN, 63, 2, 0, 1.1360, 3, 0.3737, 1.1367,75,30,111,0.7703,0
 10, 1, 113, S3-12.jpg, 1, [240 37 33], red, 1, 50, 2, 0, 0.9222, 3, 0.2588, 0.9232,88,34,77,0.7703,1
 10, 1, 114, S3-12.jpg, 1, [240 239 10], yellow, NaN, 84, 2, 0, 1.6053, 3, 0.4003, 1.6060,87,58,80,0.7703,0
 10, 1, 115, S4-20.jpg, 2, [240 239 10], yellow, NaN, 53, 2, 1, 1.0287, 3, 0.2372, 1.0295,100,41,89,0.7324,0
 10, 1, 116, S4-20.jpg, 2, [240 239 10], yellow, NaN, 61, 2, 1, 1.1183, 3, 0.3654, 1.1190,85,36,118,0.7324,0
 10, 1, 117, S3-12.jpg, 1, [10 144 240], blue, 0, 41, 2, 0, 0.7925, 3, 0.3908, 0.7933,81,35,82,0.7703,0
 10, 1, 118, S4-20.jpg, 2, [240 37 33], red, 0, 50, 2, 1, 0.9195, 3, 0.3878, 0.9203,91,25,131,0.7324,0
 10, 1, 119, S3-12.jpg, 1, [240 37 33], red, 1, 39, 2, 0, 0.7618, 3, 0.0612, 0.7628,100,31,89,0.7703,0
 10, 1, 120, S3-12.jpg, 1, [240 37 33], red, 1, 109, 2, 0, 1.9354, 3, 0.2467, 1.9361,113,79,93,0.7703,0
 10, 1, 121, S4-20.jpg, 2, [240 37 33], red, 0, 136, 2, 1, 2.3799, 3, 1.8027, 2.3807,97,55,115,0.7324,0
 10, 1, 122, S4-20.jpg, 2, [240 239 10], yellow, NaN, 84, 2, 1, 1.4393, 3, 0.4015, 1.4402,109,27,77,0.7324,0
 10, 1, 123, S3-12.jpg, 1, [240 37 33], red, 1, 107, 1, 1, 1.8592, 2, 1.0400, 1.8601,93,48,81,0.7703,0
 10, 1, 124, S4-20.jpg, 2, [10 144 240], blue, 1, 59, 2, 1, 1.0183, 3, 0.1980, 1.0193,81,27,85,0.7324,0
 10, 1, 125, S4-20.jpg, 2, [10 144 240], blue, 1, 63, 1, 0, 1.0831, 3, 0.5800, 1.0839,76,32,98,0.7324,0
 10, 1, 126, S4-20.jpg, 2, [240 239 10], yellow, NaN, 57, 1, 0, 0.9687, 3, 0.2542, 0.9705,86,31,111,0.7324,0
 10, 1, 127, S3-12.jpg, 1, [240 37 33], red, 1, 43, 1, 1, 0.7370, 3, 0.2867, 0.7378,92,28,117,0.7703,0
 10, 1, 128, S3-12.jpg, 1, [10 144 240], blue, 0, 50, 1, 1, 0.8559, 3, 0.1926, 0.8571,98,85,106,0.7703,0
 10, 1, 129, S4-20.jpg, 2, [240 37 33], red, 0, 42, 1, 0, 0.7170, 3, 0.0765, 0.7177,89,30,84,0.7324,0
 10, 1, 130, S4-20.jpg, 2, [10 144 240], blue, 1, 39, 1, 0, 0.6799, 3, 0.2385, 0.6810,111,37,110,0.7324,1
 10, 1, 131, S4-20.jpg, 2, [10 144 240], blue, 1, 113, 1, 0, 2.0272, 3, 0.3078, 2.0279,83,69,81,0.7324,0
 10, 1, 132, S4-20.jpg, 2, [240 239 10], yellow, NaN, 35, 1, 0, 0.6031, 3, 0.0002, 0.6039,102,27,100,0.7324,0
 10, 1, 133, S3-12.jpg, 1, [240 37 33], red, 1, 44, 1, 1, 0.7517, 3, 0.2504, 0.7526,102,35,83,0.7703,0
 10, 1, 134, S4-20.jpg, 2, [240 37 33], red, 0, 40, 1, 0, 0.6813, 3, 0.0220, 0.6822,96,24,88,0.7324,0
 10, 1, 135, S4-20.jpg, 2, [240 239 10], yellow, NaN, 43, 1, 0, 0.7444, 3, 0.0776, 0.7453,86,61,89,0.7324,0
 10, 1, 136, S4-20.jpg, 2, [240 37 33], red, 0, 40, 1, 0, 0.6966, 3, 0.0002, 0.6975,97,47,90,0.7324,0
 10, 1, 137, S4-20.jpg, 2, [10 144 240], blue, 1, 83, 1, 0, 1.4798, 3, 0.0004, 1.4805,91,39,112,0.7324,1
 10, 1, 138, S4-20.jpg, 2, [240 239 10], yellow, NaN, 48, 1, 0, 0.8420, 3, 0.2580, 0.8435,102,42,93,0.7324,1
 10, 1, 139, S4-20.jpg, 2, [10 144 240], blue, 1, 115, 1, 0, 2.0214, 3, 0.2865, 2.0222,77,32,83,0.7324,0
 10, 1, 140, S3-12.jpg, 1, [240 37 33], red, 1, 48, 1, 1, 0.8236, 3, 0.4861, 0.8246,88,43,77,0.7703,0
 10, 1, 141, S3-12.jpg, 1, [240 239 10], yellow, NaN, 122, 2, 0, 2.1586, 2, 1.1409, 2.1594,80,54,93,0.7703,1
 10, 1, 142, S3-12.jpg, 1, [240 37 33], red, 1, 103, 2, 0, 1.7929, 2, 1.0494, 1.7938,101,42,105,0.7703,0
 10, 1, 143, S3-12.jpg, 1, [240 37 33], red, 1, 82, 2, 0, 1.4568, 2, 0.6784, 1.4584,133,26,92,0.7703,0
 10, 1, 144, S4-20.jpg, 2, [240 37 33], red, 0, 89, 1, 0, 1.5688, 2, 0.6375, 1.5697,77,23,116,0.7324,0
 10, 1, 145, S3-12.jpg, 1, [10 144 240], blue, 0, 145, 2, 0, 2.5216, 2, 0.6005, 2.5225,89,25,79,0.7703,0
 10, 1, 146, S3-12.jpg, 1, [240 37 33], red, 1, 85, 2, 0, 1.5464, 2, 0.4910, 1.5473,76,32,106,0.7703,0
 10, 1, 147, S4-20.jpg, 2, [10 144 240], blue, 1, 116, 2, 1, 2.0358, 3, 0.2146, 2.0368,87,34,137,0.7324,0
 10, 1, 148, S4-20.jpg, 2, [240 37 33], red, 0, 50, 2, 1, 0.8518, 3, 0.5710, 0.8526,104,72,87,0.7324,0
 10, 1, 149, S3-12.jpg, 1, [240 37 33], red, 1, 87, 2, 0, 1.5351, 3, 0.4644, 1.5367,75,29,105,0.7703,0
 10, 1, 150, S4-20.jpg, 2, [240 37 33], red, 0, 46, 2, 1, 0.7812, 3, 0.2462, 0.7820,76,42,141,0.7324,0
 10, 1, 151, S4-20.jpg, 2, [10 144 240], blue, 1, 48, 2, 1, 0.8485, 3, 0.3996, 0.8492,111,39,100,0.7324,0
 10, 1, 152, S3-12.jpg, 1, [10 144 240], blue, 0, 74, 2, 0, 1.3390, 3, 0.4837, 1.3399,93,28,97,0.7703,0
 10, 1, 153, S4-20.jpg, 2, [240 37 33], red, 0, 44, 2, 1, 0.7448, 3, 0.4034, 0.7455,78,41,81,0.7324,0
 10, 1, 154, S4-20.jpg, 2, [240 239 10], yellow, NaN, 42, 2, 1, 0.7094, 3, 0.3272, 0.7103,120,25,78,0.7324,0
 10, 1, 155, S4-20.jpg, 2, [10 144 240], blue, 1, 31, 2, 1, 0.5360, 3, 0.1730, 0.5368,97,53,120,0.7324,0
 10, 1, 156, S3-12.jpg, 1, [240 37 33], red, 1, 48, 2, 0, 0.8210, 3, 0.3006, 0.8218,117,37,127,0.7703,0
 10, 1, 157, S3-12.jpg, 1, [240 37 33], red, 1, 108, 2, 0, 1.9279, 3, 0.4446, 1.9289,106,47,78,0.7703,1
 10, 1, 158, S4-20.jpg, 2, [240 37 33], red, 0, 164, 2, 1, 2.8683, 3, 0.2404, 2.8698,94,38,92,0.7324,0
 10, 1, 159, S4-20.jpg, 2, [240 239 10], yellow, NaN, 85, 2, 1, 1.4883, 3, 0.0042, 1.4891,76,26,97,0.7324,0
 10, 1, 160, S3-12.jpg, 1, [10 144 240], blue, 0, 197, 2, 0, 3.4230, 3, 0.1962, 3.4240,127,28,78,0.7703,0
 10, 1, 161, S4-20.jpg, 2, [240 239 10], yellow, NaN, 149, 2, 1, 2.6178, 3, 0.3007, 2.6187,82,25,93,0.7324,0
 10, 1, 162, S3-12.jpg, 1, [10 144 240], blue, 0, 32, 2, 0, 0.5664, 3, 0.2792, 0.5672,96,29,78,0.7703,1
 10, 1, 163, S3-12.jpg, 1, [10 144 240], blue, 0, 78, 1, 1, 1.3849, 2, 0.5259, 1.3858,87,24,94,0.7703,0
 10, 1, 164, S3-12.jpg, 1, [240 37 33], red, 1, 90, 2, 0, 1.5722, 2, 0.9044, 1.5734,77,38,93,0.7703,1
 10, 1, 165, S4-20.jpg, 2, [240 239 10], yellow, NaN, 130, 2, 1, 2.2936, 2, 0.2108, 2.2947,82,67,85,0.7324,0
 10, 1, 166, S4-20.jpg, 2, [10 144 240], blue, 1, 125, 2, 1, 2.2199, 2, 0.0003, 2.2206,108,36,96,0.7324,0
 10, 1, 167, S3-12.jpg, 1, [240 37 33], red, 1, 84, 1, 1, 1.4437, 2, 0.8561, 1.4446,80,62,76,0.7703,0
 10, 1, 168, S4-20.jpg, 2, [10 144 240], blue, 1, 129, 1, 0, 2.2379, 1, 0.4697, 2.2388,81,25,123,0.7324,0
 10, 1, 169, S4-20.jpg, 2, [10 144 240], blue, 1, 71, 2, 1, 1.2753, 2, 0.3340, 1.2760,100,31,85,0.7324,0
 10, 1, 170, S4-20.jpg, 2, [240 239 10], yellow, NaN, 109, 1, 0, 1.9297, 2, 0.1183, 1.9305,84,27,139,0.7324,0
 10, 1, 171, S3-12.jpg, 1, [240 37 33], red, 1, 144, 2, 0, 2.4977, 3, 0.4870, 2.4986,97,35,79,0.7703,0
 10, 1, 172, S4-20.jpg, 2, [240 239 10], yellow, NaN, 137, 2, 1, 2.3905, 3, 0.5809, 2.3914,80,29,78,0.7324,0
 10, 1, 173, S3-12.jpg, 1, [10 144 240], blue, 0, 113, 1, 1, 1.9790, 1, 1.1509, 1.9805,89,23,75,0.7703,1
 10, 1, 174, S4-20.jpg, 2, [240 37 33], red, 0, 150, 2, 1, 2.6261, 3, 1.2095, 2.6276,84,51,92,0.7324,0
 10, 1, 175, S3-12.jpg, 1, [10 144 240], blue, 0, 243, 1, 1, 4.2170, 1, 0.4895, 4.2178,78,44,89,0.7703,0
 10, 1, 176, S4-20.jpg, 2, [10 144 240], blue, 1, 157, 2, 1, 2.7530, 3, 0.8391, 2.7537,81,26,80,0.7324,0
 10, 1, 177, S4-20.jpg, 2, [240 239 10], yellow, NaN, 107, 2, 1, 1.8890, 3, 1.6649, 1.8898,83,38,86,0.7324,0
 10, 1, 178, S4-20.jpg, 2, [240 239 10], yellow, NaN, 132, 2, 1, 2.3308, 3, 0.2966, 2.3315,83,30,95,0.7324,0
 10, 1, 179, S4-20.jpg, 2, [240 37 33], red, 0, 114, 2, 1, 2.0329, 3, 0.3081, 2.0339,112,44,89,0.7324,0
 10, 1, 180, S3-12.jpg, 1, [10 144 240], blue, 0, 76, 1, 1, 1.3118, 4, 0.5435, 1.3126,82,24,104,0.7703,0
 10, 1, 181, S4-20.jpg, 2, [10 144 240], blue, 1, 59, 1, 0, 1.0366, 3, 0.4147, 1.0374,83,60,77,0.7324,0
 10, 1, 182, S3-12.jpg, 1, [240 37 33], red, 1, 84, 1, 1, 1.4979, 4, 0.3150, 1.4988,143,26,91,0.7703,0
 10, 1, 183, S3-12.jpg, 1, [10 144 240], blue, 0, 112, 1, 1, 1.9636, 1, 0.5208, 1.9650,87,49,78,0.7703,0
 10, 1, 184, S3-12.jpg, 1, [10 144 240], blue, 0, 84, 1, 1, 1.4718, 3, 0.2101, 1.4727,108,41,78,0.7703,0
 10, 1, 185, S4-20.jpg, 2, [10 144 240], blue, 1, 103, 1, 0, 1.8231, 3, 0.7270, 1.8239,84,35,76,0.7324,1
 10, 1, 186, S3-12.jpg, 1, [240 37 33], red, 1, 77, 1, 1, 1.3642, 3, 0.3227, 1.3650,88,38,82,0.7703,1
 10, 1, 187, S4-20.jpg, 2, [10 144 240], blue, 1, 59, 1, 0, 1.0220, 3, 0.0522, 1.0228,106,26,87,0.7324,0
 10, 1, 188, S4-20.jpg, 2, [240 37 33], red, 0, 59, 1, 0, 1.0013, 3, 0.2739, 1.0022,92,47,118,0.7324,0
 10, 1, 189, S4-20.jpg, 2, [240 37 33], red, 0, 65, 1, 0, 1.1405, 3, 0.2960, 1.1413,88,27,113,0.7324,0
 10, 1, 190, S4-20.jpg, 2, [10 144 240], blue, 1, 46, 1, 0, 0.7806, 3, 0.2930, 0.7814,78,46,110,0.7324,1
 10, 1, 191, S3-12.jpg, 1, [10 144 240], blue, 0, 48, 1, 1, 0.8222, 3, 0.0493, 0.8232,82,24,104,0.7703,0
 10, 1, 192, S4-20.jpg, 2, [10 144 240], blue, 1, 55, 1, 0, 0.9502, 3, 0.2331, 0.9511,129,82,79,0.7324,0
 10, 1, 193, S4-20.jpg, 2, [240 37 33], red, 0, 47, 1, 0, 0.8006, 3, 0.3433, 0.8016,80,40,82,0.7324,0
 10, 1, 194, S4-20.jpg, 2, [240 37 33], red, 0, 38, 1, 0, 0.6504, 3, 0.4477, 0.6517,90,35,79,0.7324,0
 10, 1, 195, S4-20.jpg, 2, [10 144 240], blue, 1, 44, 1, 0, 0.7479, 3, 0.3120, 0.7489,114,40,75,0.7324,0
 10, 1, 196, S3-12.jpg, 1, [10 144 240], blue, 0, 80, 1, 1, 1.3970, 3, 0.1281, 1.3978,136,28,77,0.7703,0
 10, 1, 197, S3-12.jpg, 1, [10 144 240], blue, 0, 58, 1, 1, 0.9864, 3, 0.3076, 0.9888,95,31,76,0.7703,0
 10, 1, 198, S4-20.jpg, 2, [240 37 33], red, 0, 62, 1, 0, 1.0657, 3, 0.5086, 1.0665,85,34,82,0.7324,0
 10, 1, 199, S3-12.jpg, 1, [240 37 33], red, 1, 79, 1, 1, 1.3863, 3, 0.6645, 1.3871,85,42,83,0.7703,0
 10, 1, 200, S4-20.jpg, 2, [240 239 10], yellow, NaN, 44, 1, 0, 0.7514, 3, 0.1592, 0.7523,86,60,82,0.7324,0
 10, 1, 201, S4-20.jpg, 2, [240 239 10], yellow, NaN, 48, 1, 0, 0.8195, 3, 0.2799, 0.8206,79,45,81,0.7324,0
 10, 1, 202, S4-20.jpg, 2, [240 37 33], red, 0, 72, 1, 0, 1.2959, 3, 0.2797, 1.2967,77,36,113,0.7324,0
 10, 1, 203, S4-20.jpg, 2, [240 37 33], red, 0, 70, 1, 0, 1.2506, 3, 0.4275, 1.2516,79,51,78,0.7324,0
 10, 1, 204, S4-20.jpg, 2, [10 144 240], blue, 1, 144, 1, 0, 2.5195, 3, 0.0852, 2.5202,80,25,85,0.7324,0
 10, 1, 205, S4-20.jpg, 2, [240 239 10], yellow, NaN, 140, 2, 1, 2.4584, 3, 1.1355, 2.4593,89,62,83,0.7324,0
 10, 1, 206, S3-12.jpg, 1, [10 144 240], blue, 0, 110, 2, 0, 1.9041, 3, 0.2715, 1.9049,90,90,102,0.7703,0
 10, 1, 207, S4-20.jpg, 2, [240 239 10], yellow, NaN, 56, 2, 1, 0.9434, 3, 0.1345, 0.9441,85,50,98,0.7324,1
 10, 1, 208, S3-12.jpg, 1, [240 37 33], red, 1, 51, 2, 0, 0.8625, 2, 0.1750, 0.8633,81,52,129,0.7703,0
 10, 1, 209, S3-12.jpg, 1, [10 144 240], blue, 0, 62, 2, 0, 1.0685, 2, 0.2928, 1.0693,80,53,95,0.7703,0
 10, 1, 210, S3-12.jpg, 1, [10 144 240], blue, 0, 68, 2, 0, 1.1973, 2, 0.1458, 1.1988,101,38,128,0.7703,0
 10, 1, 211, S3-12.jpg, 1, [10 144 240], blue, 0, 65, 2, 0, 1.1539, 2, 0.3978, 1.1549,126,48,77,0.7703,0
 10, 1, 212, S3-12.jpg, 1, [10 144 240], blue, 0, 58, 2, 0, 0.9840, 2, 0.7988, 0.9849,105,33,97,0.7703,0
 10, 1, 213, S4-20.jpg, 2, [10 144 240], blue, 1, 37, 2, 1, 0.6319, 2, 0.4378, 0.6329,81,75,84,0.7324,0
 10, 1, 214, S3-12.jpg, 1, [240 37 33], red, 1, 39, 2, 0, 0.6699, 2, 0.2734, 0.6707,120,52,112,0.7703,0
 10, 1, 215, S3-12.jpg, 1, [10 144 240], blue, 0, 46, 2, 0, 0.7902, 2, 0.2240, 0.7914,77,30,115,0.7703,0
 10, 1, 216, S4-20.jpg, 2, [240 37 33], red, 0, 46, 2, 1, 0.7901, 2, 0.0962, 0.7915,92,25,125,0.7324,1
 10, 1, 217, S4-20.jpg, 2, [240 37 33], red, 0, 89, 2, 1, 1.6110, 2, 0.2284, 1.6119,113,67,79,0.7324,0
 10, 1, 218, S3-12.jpg, 1, [10 144 240], blue, 0, 72, 2, 0, 1.2614, 2, 0.2731, 1.2623,80,86,77,0.7703,0
 10, 1, 219, S4-20.jpg, 2, [10 144 240], blue, 1, 45, 2, 1, 0.7722, 2, 0.3125, 0.7731,132,36,83,0.7324,0
 10, 1, 220, S3-12.jpg, 1, [240 37 33], red, 1, 55, 2, 0, 0.9506, 2, 0.3575, 0.9514,84,29,98,0.7703,0
 10, 1, 221, S4-20.jpg, 2, [240 239 10], yellow, NaN, 102, 1, 0, 1.7730, 1, 0.4487, 1.7744,80,43,81,0.7324,0
 10, 1, 222, S3-12.jpg, 1, [240 37 33], red, 1, 78, 2, 0, 1.3825, 2, 0.3204, 1.3834,109,64,109,0.7703,0
 10, 1, 223, S4-20.jpg, 2, [10 144 240], blue, 1, 41, 2, 1, 0.7059, 2, 0.1762, 0.7067,88,32,81,0.7324,0
 10, 1, 224, S4-20.jpg, 2, [240 37 33], red, 0, 83, 2, 1, 1.4547, 2, 1.4873, 1.4562,112,48,82,0.7324,0
 10, 1, 225, S3-12.jpg, 1, [10 144 240], blue, 0, 132, 2, 0, 2.3035, 2, 0.4412, 2.3045,123,31,79,0.7703,0
 10, 1, 226, S4-20.jpg, 2, [240 37 33], red, 0, 84, 2, 1, 1.4710, 2, 0.0002, 1.4719,81,29,75,0.7324,0
 10, 1, 227, S4-20.jpg, 2, [10 144 240], blue, 1, 45, 2, 1, 0.7612, 2, 0.3176, 0.7620,91,26,126,0.7324,0
 10, 1, 228, S4-20.jpg, 2, [10 144 240], blue, 1, 51, 2, 1, 0.8763, 2, 0.2847, 0.8773,86,28,88,0.7324,0
 10, 1, 229, S4-20.jpg, 2, [240 37 33], red, 0, 47, 2, 1, 0.8461, 2, 0.5014, 0.8470,96,33,142,0.7324,0
 10, 1, 230, S4-20.jpg, 2, [10 144 240], blue, 1, 81, 1, 0, 1.3972, 1, 0.1795, 1.3982,83,50,90,0.7324,0
 10, 1, 231, S4-20.jpg, 2, [10 144 240], blue, 1, 120, 2, 1, 2.1184, 2, 0.3286, 2.1194,85,30,75,0.7324,0
 10, 1, 232, S4-20.jpg, 2, [10 144 240], blue, 1, 51, 2, 1, 0.8855, 2, 0.3123, 0.8864,90,32,136,0.7324,0
 10, 1, 233, S4-20.jpg, 2, [10 144 240], blue, 1, 59, 2, 1, 1.0164, 2, 0.0002, 1.0171,83,55,91,0.7324,0
 10, 1, 234, S4-20.jpg, 2, [240 37 33], red, 0, 65, 2, 1, 1.1774, 2, 0.0002, 1.1782,77,49,76,0.7324,0
 10, 1, 235, S4-20.jpg, 2, [10 144 240], blue, 1, 56, 2, 1, 0.9607, 2, 0.0374, 0.9617,125,26,76,0.7324,0
 10, 1, 236, S4-20.jpg, 2, [240 37 33], red, 0, 126, 1, 0, 2.2098, 1, 0.4757, 2.2105,78,41,77,0.7324,0
 10, 1, 237, S4-20.jpg, 2, [240 37 33], red, 0, 91, 2, 1, 1.5991, 2, 0.5219, 1.6005,82,40,143,0.7324,0
 10, 1, 238, S4-20.jpg, 2, [240 37 33], red, 0, 54, 2, 1, 0.9270, 2, 0.4570, 0.9279,107,50,80,0.7324,0
 10, 1, 239, S4-20.jpg, 2, [240 37 33], red, 0, 126, 2, 1, 2.2077, 2, 0.3186, 2.2087,139,78,91,0.7324,0
 10, 1, 240, S4-20.jpg, 2, [10 144 240], blue, 1, 82, 2, 1, 1.4175, 3, 0.5758, 1.4185,103,31,96,0.7324,1
 10, 1, 241, S4-20.jpg, 2, [10 144 240], blue, 1, 90, 2, 1, 1.5842, 3, 0.1771, 1.5851,92,89,135,0.7324,0
 10, 1, 242, S4-20.jpg, 2, [240 37 33], red, 0, 64, 2, 1, 1.1200, 3, 0.3006, 1.1207,101,80,96,0.7324,0
 10, 1, 243, S4-20.jpg, 2, [240 37 33], red, 0, 84, 1, 0, 1.5305, 2, 0.2757, 1.5315,93,49,114,0.7324,0
 10, 1, 244, S4-20.jpg, 2, [10 144 240], blue, 1, 114, 1, 0, 1.9875, 1, 0.7947, 1.9885,89,26,82,0.7324,0
 10, 1, 245, S4-20.jpg, 2, [10 144 240], blue, 1, 146, 2, 1, 2.5504, 2, 0.8133, 2.5511,86,35,86,0.7324,0
 10, 1, 246, S4-20.jpg, 2, [240 239 10], yellow, NaN, 162, 2, 1, 2.8255, 2, 0.1966, 2.8262,90,37,79,0.7324,0
 10, 1, 247, S4-20.jpg, 2, [10 144 240], blue, 1, 297, 2, 1, 5.1499, 2, 0.0002, 5.1508,98,25,96,0.7324,0
 10, 1, 248, S4-20.jpg, 2, [240 239 10], yellow, NaN, 126, 2, 1, 2.2096, 2, 0.3189, 2.2105,87,27,91,0.7324,0
 10, 1, 249, S4-20.jpg, 2, [10 144 240], blue, 1, 127, 2, 1, 2.2238, 2, 0.2419, 2.2247,98,39,78,0.7324,0
 10, 1, 250, S4-20.jpg, 2, [240 239 10], yellow, NaN, 115, 2, 1, 1.9887, 2, 0.2650, 1.9897,85,64,105,0.7324,0
 10, 1, 251, S4-20.jpg, 2, [10 144 240], blue, 1, 123, 1, 0, 2.1818, 3, 0.1762, 2.1833,138,40,80,0.7324,0
 10, 1, 252, S4-20.jpg, 2, [240 37 33], red, 0, 128, 2, 1, 2.2379, 3, 0.3448, 2.2388,79,27,82,0.7324,0
 10, 1, 253, S4-20.jpg, 2, [240 37 33], red, 0, 116, 2, 1, 2.0404, 3, 0.0002, 2.0413,93,88,86,0.7324,0
 10, 1, 254, S4-20.jpg, 2, [240 37 33], red, 0, 103, 2, 1, 1.7941, 3, 0.4471, 1.7951,114,33,124,0.7324,0
 10, 1, 255, S4-20.jpg, 2, [240 37 33], red, 0, 102, 1, 0, 1.7992, 1, 0.3725, 1.8000,119,37,86,0.7324,0
 10, 1, 256, S4-20.jpg, 2, [10 144 240], blue, 1, 278, 1, 0, 4.8194, 1, 0.6855, 4.8203,76,27,103,0.7324,1
 10, 1, 257, S4-20.jpg, 2, [10 144 240], blue, 1, 147, 2, 1, 2.5644, 2, 0.4513, 2.5654,108,24,114,0.7324,0
 10, 1, 258, S4-20.jpg, 2, [240 37 33], red, 0, 146, 2, 1, 2.5784, 1, 1.0433, 2.5795,116,28,80,0.7324,0
 10, 1, 259, S4-20.jpg, 2, [240 37 33], red, 0, 118, 2, 1, 2.0677, 3, 0.3367, 2.0685,105,34,83,0.7324,0
 10, 1, 260, S4-20.jpg, 2, [10 144 240], blue, 1, 128, 2, 1, 2.2375, 3, 0.0002, 2.2383,76,28,101,0.7324,0
 10, 1, 261, S4-20.jpg, 2, [240 239 10], yellow, NaN, 134, 2, 1, 2.3439, 3, 0.4700, 2.3450,78,44,84,0.7324,0
 10, 1, 262, S4-20.jpg, 2, [10 144 240], blue, 1, 94, 2, 1, 1.6448, 3, 0.0660, 1.6455,99,29,90,0.7324,0
 10, 1, 263, S4-20.jpg, 2, [240 37 33], red, 0, 49, 2, 1, 0.8153, 3, 0.0002, 0.8161,92,33,99,0.7324,0
 10, 1, 264, S4-20.jpg, 2, [10 144 240], blue, 1, 44, 2, 1, 0.7612, 3, 0.2950, 0.7623,76,61,132,0.7324,0
 10, 1, 265, S4-20.jpg, 2, [240 37 33], red, 0, 72, 2, 1, 1.2675, 3, 0.3693, 1.2683,131,74,101,0.7324,0
 10, 1, 266, S4-20.jpg, 2, [10 144 240], blue, 1, 47, 2, 1, 0.8113, 3, 0.3060, 0.8122,86,44,107,0.7324,0
 10, 1, 267, S4-20.jpg, 2, [240 37 33], red, 0, 83, 2, 1, 1.4572, 3, 0.3403, 1.4580,78,26,90,0.7324,0
 10, 1, 268, S4-20.jpg, 2, [10 144 240], blue, 1, 142, 2, 1, 2.4720, 3, 0.0003, 2.4728,77,24,77,0.7324,0
 10, 1, 269, S4-20.jpg, 2, [240 239 10], yellow, NaN, 119, 2, 1, 2.0620, 3, 0.0004, 2.0629,75,30,79,0.7324,0
 10, 1, 270, S4-20.jpg, 2, [10 144 240], blue, 1, 72, 2, 1, 1.2587, 2, 0.4786, 1.2596,124,47,107,0.7324,0
 10, 1, 271, S4-20.jpg, 2, [10 144 240], blue, 1, 113, 2, 1, 1.9938, 2, 0.1088, 1.9948,110,71,93,0.7324,0
 10, 1, 272, S4-20.jpg, 2, [240 239 10], yellow, NaN, 114, 2, 1, 1.9888, 2, 0.1371, 1.9896,92,29,102,0.7324,0
 10, 1, 273, S4-20.jpg, 2, [240 37 33], red, 0, 102, 2, 1, 1.7755, 2, 0.6928, 1.7763,104,24,99,0.7324,0
 10, 1, 274, S4-20.jpg, 2, [240 239 10], yellow, NaN, 61, 2, 1, 1.0470, 2, 0.6311, 1.0481,83,28,85,0.7324,0
 10, 1, 275, S4-20.jpg, 2, [10 144 240], blue, 1, 123, 2, 1, 2.1637, 2, 0.0407, 2.1647,96,39,85,0.7324,0
 10, 1, 276, S3-12.jpg, 1, [240 37 33], red, 1, 129, 2, 0, 2.2207, 2, 0.2707, 2.2215,78,68,84,0.7703,1