subID,block,trial,targetImg,targetIdx,cue_rgb,cue_string,congruent,respFrame,response,accuracy,RT,confResp,confRT,flickerDuration,noise1frames,signal1frames,noise2frames,coherence,catch_trial
 16, 1, 1, S1-15.jpg, 1, [181 10 240], purple, 1, 179, 2, 0, 3.1272, 1, 1.6567, 3.1334,89,25,87,0.7857,0
 16, 1, 2, S2-19.jpg, 2, [10 240 94], green, 1, 231, 2, 1, 4.0252, 1, 0.5841, 4.0263,91,31,104,0.7019,0
 16, 1, 3, S2-19.jpg, 2, [10 240 94], green, 1, 259, 1, 0, 4.5481, 2, 0.4283, 4.5488,89,27,80,0.7019,0
 16, 1, 4, S1-15.jpg, 1, [10 240 94], green, 0, 141, 2, 0, 2.4378, 2, 0.8344, 2.4386,139,31,85,0.7857,0
 16, 1, 5, S2-19.jpg, 2, [10 240 94], green, 1, 269, 1, 0, 4.6624, 1, 0.5840, 4.6632,138,25,81,0.7019,0
 16, 1, 6, S1-15.jpg, 1, [10 240 94], green, 0, 313, 2, 0, 5.4477, 1, 0.4085, 5.4485,79,33,86,0.7857,0
 16, 1, 7, S2-19.jpg, 2, [10 240 94], green, 1, 372, 2, 1, 6.4525, 2, 0.5594, 6.4533,96,27,76,0.7019,0
 16, 1, 8, S2-19.jpg, 2, [10 240 94], green, 1, 346, 2, 1, 6.0098, 2, 0.7373, 6.0105,94,51,88,0.7019,0
 16, 1, 9, S2-19.jpg, 2, [10 240 94], green, 1, 355, 1, 0, 6.1817, 1, 0.5514, 6.1826,86,58,90,0.7019,0
 16, 1, 10, S2-19.jpg, 2, [10 240 94], green, 1, 351, 2, 1, 6.0967, 1, 1.2238, 6.0976,127,36,113,0.7019,0
 16, 1, 11, S1-15.jpg, 1, [10 240 94], green, 0, 250, 2, 0, 4.3428, 3, 0.4669, 4.3436,84,62,83,0.7857,1
 16, 1, 12, S1-15.jpg, 1, [181 10 240], purple, 1, 304, 2, 0, 5.3020, 2, 0.4545, 5.3028,77,38,78,0.7857,0
 16, 1, 13, S1-15.jpg, 1, [240 168 10], orange, NaN, 224, 1, 1, 3.9266, 3, 0.7294, 3.9280,107,26,90,0.7857,1
 16, 1, 14, S2-19.jpg, 2, [10 240 94], green, 1, 398, 1, 0, 6.8997, 1, 0.5531, 6.9005,104,38,102,0.7019,0
 16, 1, 15, S2-19.jpg, 2, [10 240 94], green, 1, 292, 1, 0, 5.0604, 3, 0.3526, 5.0612,81,53,77,0.7019,0
 16, 1, 16, S1-15.jpg, 1, [240 168 10], orange, NaN, 229, 1, 1, 4.0006, 3, 0.1803, 4.0014,95,81,82,0.7857,0
 16, 1, 17, S1-15.jpg, 1, [240 168 10], orange, NaN, 436, 2, 0, 7.5684, 1, 0.8797, 7.5691,103,31,76,0.7857,0
 16, 1, 18, S1-15.jpg, 1, [240 168 10], orange, NaN, 387, 2, 0, 6.7368, 2, 0.3445, 6.7377,103,41,76,0.7857,0
 16, 1, 19, S1-15.jpg, 1, [181 10 240], purple, 1, 280, 1, 1, 4.8548, 3, 0.2825, 4.8558,79,24,79,0.7857,0
 16, 1, 20, S1-15.jpg, 1, [181 10 240], purple, 1, 439, 2, 0, 7.6330, 2, 0.3051, 7.6345,110,41,89,0.7857,1
 16, 1, 21, S1-15.jpg, 1, [181 10 240], purple, 1, 319, 1, 1, 5.5776, 1, 1.3029, 5.5785,82,29,94,0.7857,1
 16, 1, 22, S1-15.jpg, 1, [181 10 240], purple, 1, 381, 1, 1, 6.5907, 1, 0.1427, 6.5917,93,26,80,0.7857,0
 16, 1, 23, S2-19.jpg, 2, [181 10 240], purple, 0, 457, 1, 0, 7.9245, 2, 0.7108, 7.9255,136,74,93,0.7019,0
 16, 1, 24, S1-15.jpg, 1, [240 168 10], orange, NaN, 350, 2, 0, 6.0540, 2, 0.6589, 6.0549,82,53,85,0.7857,0
 16, 1, 25, S1-15.jpg, 1, [240 168 10], orange, NaN, 461, 1, 1, 7.9697, 2, 1.0286, 7.9707,86,87,102,0.7857,0
 16, 1, 26, S1-15.jpg, 1, [240 168 10], orange, NaN, NaN, NaN, 0, NaN, 2, 0.8579, 9.3327,76,49,83,0.7857,0
 16, 1, 27, S1-15.jpg, 1, [181 10 240], purple, 1, 241, 1, 1, 4.1903, 2, 0.5057, 4.1911,116,35,77,0.7857,0
 16, 1, 28, S1-15.jpg, 1, [181 10 240], purple, 1, 323, 1, 1, 5.6049, 2, 1.7591, 5.6063,80,57,82,0.7857,0
 16, 1, 29, S1-15.jpg, 1, [10 240 94], green, 0, 399, 1, 1, 6.9046, 3, 0.8236, 6.9055,99,61,85,0.7857,0
 16, 1, 30, S1-15.jpg, 1, [181 10 240], purple, 1, 277, 1, 1, 4.8246, 3, 0.1743, 4.8255,90,91,86,0.7857,0
 16, 1, 31, S2-19.jpg, 2, [181 10 240], purple, 0, 359, 1, 0, 6.2073, 2, 0.3849, 6.2080,128,44,95,0.7019,0
 16, 1, 32, S2-19.jpg, 2, [10 240 94], green, 1, 234, 2, 1, 4.0768, 4, 0.2874, 4.0777,78,143,99,0.7019,1
 16, 1, 33, S2-19.jpg, 2, [10 240 94], green, 1, 348, 1, 0, 6.0797, 2, 0.2271, 6.0806,95,24,83,0.7019,0
 16, 1, 34, S2-19.jpg, 2, [10 240 94], green, 1, 248, 1, 0, 4.3090, 3, 0.2722, 4.3099,94,62,85,0.7019,0
 16, 1, 35, S1-15.jpg, 1, [181 10 240], purple, 1, 359, 2, 0, 6.2094, 1, 0.3036, 6.2104,87,23,85,0.7857,0
 16, 1, 36, S2-19.jpg, 2, [181 10 240], purple, 0, 323, 2, 1, 5.6104, 2, 0.8285, 5.6112,91,27,112,0.7019,0
 16, 1, 37, S1-15.jpg, 1, [240 168 10], orange, NaN, 383, 2, 0, 6.6359, 2, 0.5087, 6.6369,120,26,89,0.7857,0
 16, 1, 38, S2-19.jpg, 2, [10 240 94], green, 1, 304, 1, 0, 5.2920, 3, 0.1904, 5.2929,84,33,108,0.7019,0
 16, 1, 39, S1-15.jpg, 1, [240 168 10], orange, NaN, 202, 1, 1, 3.5423, 4, 1.6086, 3.5430,76,32,102,0.7857,0
 16, 1, 40, S1-15.jpg, 1, [181 10 240], purple, 1, 202, 1, 1, 3.5589, 2, 1.0344, 3.5595,78,28,79,0.7857,0
 16, 1, 41, S1-15.jpg, 1, [181 10 240], purple, 1, 229, 1, 1, 3.9953, 3, 0.9307, 3.9963,102,37,106,0.7857,0
 16, 1, 42, S1-15.jpg, 1, [181 10 240], purple, 1, 425, 1, 1, 7.3692, 2, 0.6904, 7.3702,76,27,94,0.7857,0
 16, 1, 43, S2-19.jpg, 2, [10 240 94], green, 1, 362, 2, 1, 6.2925, 3, 0.8368, 6.2933,141,54,84,0.7019,1
 16, 1, 44, S2-19.jpg, 2, [10 240 94], green, 1, 257, 1, 0, 4.4448, 2, 0.7856, 4.4458,112,27,96,0.7019,0
 16, 1, 45, S1-15.jpg, 1, [240 168 10], orange, NaN, 419, 2, 0, 7.2652, 3, 0.6103, 7.2659,89,40,123,0.7857,1
 16, 1, 46, S1-15.jpg, 1, [240 168 10], orange, NaN, 378, 2, 0, 6.5370, 2, 1.1009, 6.5378,82,35,79,0.7857,0
 16, 1, 47, S2-19.jpg, 2, [10 240 94], green, 1, 336, 1, 0, 5.8356, 1, 0.2163, 5.8364,75,28,103,0.7019,0
 16, 1, 48, S2-19.jpg, 2, [10 240 94], green, 1, 343, 1, 0, 5.9483, 2, 1.5477, 5.9491,76,30,80,0.7019,0
 16, 1, 49, S1-15.jpg, 1, [181 10 240], purple, 1, 346, 2, 0, 6.0317, 2, 0.3588, 6.0324,106,64,100,0.7857,0
 16, 1, 50, S2-19.jpg, 2, [10 240 94], green, 1, 318, 1, 0, 5.5188, 2, 0.1875, 5.5196,81,31,78,0.7019,0
 16, 1, 51, S1-15.jpg, 1, [240 168 10], orange, NaN, 437, 2, 0, 7.5978, 2, 0.3584, 7.5987,116,36,97,0.7857,0
 16, 1, 52, S1-15.jpg, 1, [10 240 94], green, 0, 267, 1, 1, 4.6759, 3, 0.3043, 4.6773,105,29,134,0.7857,0
 16, 1, 53, S1-15.jpg, 1, [181 10 240], purple, 1, 391, 2, 0, 6.7939, 3, 0.5576, 6.7948,81,55,108,0.7857,0
 16, 1, 54, S1-15.jpg, 1, [10 240 94], green, 0, 473, 2, 0, 8.1876, 2, 0.7228, 8.1884,86,35,95,0.7857,0
 16, 1, 55, S1-15.jpg, 1, [240 168 10], orange, NaN, 525, 1, 1, 9.0950, 1, 1.5813, 9.0958,90,43,80,0.7857,0
 16, 1, 56, S1-15.jpg, 1, [240 168 10], orange, NaN, 353, 2, 0, 6.1328, 1, 0.7069, 6.1335,84,25,120,0.7857,0
 16, 1, 57, S2-19.jpg, 2, [240 168 10], orange, NaN, 209, 1, 0, 3.6559, 2, 0.0465, 3.6569,76,24,78,0.7019,1
 16, 1, 58, S2-19.jpg, 2, [10 240 94], green, 1, 387, 2, 1, 6.7344, 2, 0.8477, 6.7354,78,56,86,0.7019,0
 16, 1, 59, S1-15.jpg, 1, [240 168 10], orange, NaN, 435, 1, 1, 7.5481, 1, 0.2097, 7.5488,83,33,97,0.7857,0
 16, 1, 60, S2-19.jpg, 2, [181 10 240], purple, 0, 308, 1, 0, 5.3191, 2, 0.9656, 5.3200,118,30,93,0.7019,0
 16, 1, 61, S2-19.jpg, 2, [10 240 94], green, 1, 238, 1, 0, 4.1301, 2, 2.2811, 4.1309,82,37,84,0.7019,0
 16, 1, 62, S2-19.jpg, 2, [10 240 94], green, 1, 295, 2, 1, 5.1572, 2, 0.9445, 5.1579,106,48,77,0.7019,1
 16, 1, 63, S1-15.jpg, 1, [240 168 10], orange, NaN, 365, 1, 1, 6.3188, 2, 1.2171, 6.3202,80,23,128,0.7857,0
 16, 1, 64, S1-15.jpg, 1, [181 10 240], purple, 1, 386, 2, 0, 6.7309, 2, 0.8697, 6.7319,79,47,91,0.7857,0
 16, 1, 65, S1-15.jpg, 1, [10 240 94], green, 0, NaN, 1, 1, 9.3813, 1, 0.7766, 9.3595,109,45,91,0.7857,0
 16, 1, 66, S1-15.jpg, 1, [181 10 240], purple, 1, 314, 2, 0, 5.4370, 2, 0.6565, 5.4378,80,39,77,0.7857,0
 16, 1, 67, S2-19.jpg, 2, [181 10 240], purple, 0, 334, 2, 1, 5.7901, 2, 0.6648, 5.7909,118,30,83,0.7019,1
 16, 1, 68, S1-15.jpg, 1, [181 10 240], purple, 1, 296, 1, 1, 5.1507, 2, 0.7937, 5.1514,85,28,91,0.7857,0
 16, 1, 69, S1-15.jpg, 1, [181 10 240], purple, 1, 336, 2, 0, 5.8499, 2, 0.3527, 5.8508,78,28,80,0.7857,0
 16, 1, 70, S1-15.jpg, 1, [181 10 240], purple, 1, 393, 2, 0, 6.8121, 1, 0.1799, 6.8129,113,61,87,0.7857,0
 16, 1, 71, S2-19.jpg, 2, [10 240 94], green, 1, 424, 2, 1, 7.3514, 3, 0.3618, 7.3525,114,25,79,0.7019,0
 16, 1, 72, S2-19.jpg, 2, [10 240 94], green, 1, 282, 1, 0, 4.9041, 2, 2.4805, 4.9050,100,44,117,0.7019,0
 16, 1, 73, S2-19.jpg, 2, [10 240 94], green, 1, 186, 1, 0, 3.2505, 3, 0.2278, 3.2513,96,75,82,0.7019,0
 16, 1, 74, S1-15.jpg, 1, [10 240 94], green, 0, 252, 1, 1, 4.3749, 2, 0.3181, 4.3760,106,25,87,0.7857,0
 16, 1, 75, S1-15.jpg, 1, [240 168 10], orange, NaN, 309, 1, 1, 5.3816, 2, 0.8841, 5.3824,131,88,76,0.7857,0
 16, 1, 76, S2-19.jpg, 2, [10 240 94], green, 1, 292, 1, 0, 5.1135, 2, 0.7739, 5.1145,87,34,89,0.7019,0
 16, 1, 77, S2-19.jpg, 2, [10 240 94], green, 1, 282, 1, 0, 4.8883, 2, 0.6211, 4.8891,101,47,86,0.7019,0
 16, 1, 78, S2-19.jpg, 2, [10 240 94], green, 1, 314, 1, 0, 5.4396, 3, 0.8611, 5.4405,93,25,81,0.7019,1
 16, 1, 79, S2-19.jpg, 2, [10 240 94], green, 1, 266, 1, 0, 4.6183, 3, 0.1310, 4.6190,107,36,90,0.7019,0
 16, 1, 80, S1-15.jpg, 1, [181 10 240], purple, 1, 233, 1, 1, 4.0843, 3, 0.1075, 4.0850,102,31,125,0.7857,0
 16, 1, 81, S2-19.jpg, 2, [10 240 94], green, 1, 232, 1, 0, 4.0579, 2, 0.1185, 4.0590,94,40,95,0.7019,1
 16, 1, 82, S1-15.jpg, 1, [240 168 10], orange, NaN, 229, 1, 1, 4.0329, 2, 0.2340, 4.0337,80,41,79,0.7857,0
 16, 1, 83, S2-19.jpg, 2, [10 240 94], green, 1, 265, 1, 0, 4.6145, 2, 0.2101, 4.6154,78,26,131,0.7019,0
 16, 1, 84, S1-15.jpg, 1, [240 168 10], orange, NaN, 240, 1, 1, 4.1906, 3, 0.4997, 4.1914,195,35,108,0.7857,0
 16, 1, 85, S1-15.jpg, 1, [181 10 240], purple, 1, 311, 1, 1, 5.4298, 2, 0.0958, 5.4306,83,45,77,0.7857,0
 16, 1, 86, S2-19.jpg, 2, [10 240 94], green, 1, 433, 2, 1, 7.5134, 2, 0.3708, 7.5142,115,57,88,0.7019,0
 16, 1, 87, S1-15.jpg, 1, [10 240 94], green, 0, 381, 1, 1, 6.6406, 2, 0.6689, 6.6414,77,32,133,0.7857,0
 16, 1, 88, S2-19.jpg, 2, [10 240 94], green, 1, 493, 2, 1, 8.5245, 2, 0.6372, 8.5252,79,35,136,0.7019,0
 16, 1, 89, S1-15.jpg, 1, [181 10 240], purple, 1, 434, 2, 0, 7.5278, 2, 0.5278, 7.5285,86,23,105,0.7857,0
 16, 1, 90, S2-19.jpg, 2, [10 240 94], green, 1, 464, 2, 1, 8.0356, 2, 0.7479, 8.0363,130,26,90,0.7019,0
 16, 1, 91, S1-15.jpg, 1, [181 10 240], purple, 1, 530, 2, 0, 9.1802, 3, 0.8088, 9.1809,93,28,94,0.7857,0
 16, 1, 92, S1-15.jpg, 1, [240 168 10], orange, NaN, 202, 2, 0, 3.5190, 2, 0.3236, 3.5198,84,63,75,0.7857,0
 16, 1, 93, S1-15.jpg, 1, [181 10 240], purple, 1, 422, 2, 0, 7.3083, 2, 0.1400, 7.3091,86,33,142,0.7857,0
 16, 1, 94, S1-15.jpg, 1, [181 10 240], purple, 1, 432, 2, 0, 7.4782, 2, 0.6301, 7.4790,81,40,87,0.7857,0
 16, 1, 95, S1-15.jpg, 1, [181 10 240], purple, 1, 446, 2, 0, 7.7179, 1, 0.0097, 7.7187,78,40,93,0.7857,0
 16, 1, 96, S1-15.jpg, 1, [10 240 94], green, 0, 348, 2, 0, 6.0602, 3, 1.1934, 6.0609,82,64,78,0.7857,0
 16, 1, 97, S1-15.jpg, 1, [181 10 240], purple, 1, 262, 1, 1, 4.5545, 3, 0.1972, 4.5553,107,24,92,0.7857,0
 16, 1, 98, S1-15.jpg, 1, [10 240 94], green, 0, 472, 2, 0, 8.1886, 2, 0.3052, 8.1895,99,39,83,0.7857,0
 16, 1, 99, S1-15.jpg, 1, [240 168 10], orange, NaN, 376, 1, 1, 6.5101, 2, 0.6811, 6.5108,78,25,103,0.7857,0
 16, 1, 100, S1-15.jpg, 1, [240 168 10], orange, NaN, 329, 2, 0, 5.7163, 3, 0.6590, 5.7171,81,32,100,0.7857,1
 16, 1, 101, S2-19.jpg, 2, [10 240 94], green, 1, 352, 1, 0, 6.0859, 2, 0.7193, 6.0872,85,32,78,0.7019,0
 16, 1, 102, S1-15.jpg, 1, [10 240 94], green, 0, 441, 2, 0, 7.6894, 2, 0.3708, 7.6902,108,68,80,0.7857,0
 16, 1, 103, S2-19.jpg, 2, [10 240 94], green, 1, 372, 1, 0, 6.4421, 2, 0.6286, 6.4430,80,39,127,0.7019,0
 16, 1, 104, S2-19.jpg, 2, [181 10 240], purple, 0, 436, 2, 1, 7.5691, 2, 0.6396, 7.5707,95,50,83,0.7019,0
 16, 1, 105, S2-19.jpg, 2, [10 240 94], green, 1, 448, 2, 1, 7.7905, 2, 0.6418, 7.7914,79,59,90,0.7019,0
 16, 1, 106, S1-15.jpg, 1, [10 240 94], green, 0, 222, 1, 1, 3.8552, 2, 0.2073, 3.8566,76,28,124,0.7857,0
 16, 1, 107, S1-15.jpg, 1, [181 10 240], purple, 1, 422, 1, 1, 7.3098, 1, 0.1573, 7.3107,87,52,115,0.7857,0
 16, 1, 108, S2-19.jpg, 2, [10 240 94], green, 1, 241, 1, 0, 4.1895, 2, 0.0484, 4.1903,110,34,77,0.7019,0
 16, 1, 109, S1-15.jpg, 1, [240 168 10], orange, NaN, 227, 1, 1, 3.9507, 3, 0.4095, 3.9515,85,53,79,0.7857,0
 16, 1, 110, S2-19.jpg, 2, [10 240 94], green, 1, 294, 1, 0, 5.1416, 1, 0.4372, 5.1425,142,40,94,0.7019,0
 16, 1, 111, S1-15.jpg, 1, [181 10 240], purple, 1, 375, 2, 0, 6.4760, 2, 0.6036, 6.4769,87,56,98,0.7857,0
 16, 1, 112, S2-19.jpg, 2, [10 240 94], green, 1, 420, 2, 1, 7.2755, 2, 0.6112, 7.2764,123,72,99,0.7019,0
 16, 1, 113, S2-19.jpg, 2, [10 240 94], green, 1, 345, 1, 0, 5.9704, 2, 0.8537, 5.9711,83,29,98,0.7019,0
 16, 1, 114, S1-15.jpg, 1, [240 168 10], orange, NaN, 380, 1, 1, 6.5895, 2, 0.5345, 6.5905,94,33,82,0.7857,0
 16, 1, 115, S2-19.jpg, 2, [181 10 240], purple, 0, 462, 2, 1, 7.9945, 2, 0.7007, 7.9955,92,65,76,0.7019,0
 16, 1, 116, S1-15.jpg, 1, [181 10 240], purple, 1, 428, 2, 0, 7.4464, 2, 0.4576, 7.4474,100,55,77,0.7857,0
 16, 1, 117, S1-15.jpg, 1, [181 10 240], purple, 1, 538, 2, 0, 9.3046, 2, 0.4626, 9.3055,89,29,87,0.7857,1
 16, 1, 118, S1-15.jpg, 1, [181 10 240], purple, 1, 283, 1, 1, 4.9192, 2, 1.8337, 4.9207,77,24,91,0.7857,0
 16, 1, 119, S1-15.jpg, 1, [181 10 240], purple, 1, 255, 1, 1, 4.4267, 3, 0.2173, 4.4276,140,42,88,0.7857,0
 16, 1, 120, S1-15.jpg, 1, [181 10 240], purple, 1, 300, 1, 1, 5.2472, 3, 0.2972, 5.2481,84,76,113,0.7857,0
 16, 1, 121, S1-15.jpg, 1, [181 10 240], purple, 1, 252, 1, 1, 4.3772, 2, 0.7024, 4.3781,81,24,91,0.7857,1
 16, 1, 122, S2-19.jpg, 2, [10 240 94], green, 1, 327, 2, 1, 5.7125, 3, 1.2305, 5.7132,100,43,100,0.7019,1
 16, 1, 123, S2-19.jpg, 2, [181 10 240], purple, 0, 432, 2, 1, 7.5177, 2, 0.5764, 7.5186,96,38,132,0.7019,0
 16, 1, 124, S2-19.jpg, 2, [10 240 94], green, 1, 331, 1, 0, 5.7365, 2, 0.4940, 5.7375,120,66,99,0.7019,0
 16, 1, 125, S1-15.jpg, 1, [181 10 240], purple, 1, 262, 1, 1, 4.5367, 3, 1.5488, 4.5374,119,29,81,0.7857,0
 16, 1, 126, S1-15.jpg, 1, [240 168 10], orange, NaN, 205, 1, 1, 3.6015, 4, 0.2310, 3.6022,82,25,143,0.7857,0
 16, 1, 127, S1-15.jpg, 1, [10 240 94], green, 0, 381, 1, 1, 6.6187, 2, 0.0956, 6.6197,76,30,78,0.7857,0
 16, 1, 128, S1-15.jpg, 1, [10 240 94], green, 0, 365, 2, 0, 6.3547, 2, 0.5272, 6.3556,79,32,87,0.7857,0
 16, 1, 129, S2-19.jpg, 2, [10 240 94], green, 1, 412, 1, 0, 7.1411, 2, 0.6155, 7.1420,96,73,88,0.7019,0
 16, 1, 130, S1-15.jpg, 1, [10 240 94], green, 0, 191, 2, 0, 3.3699, 2, 0.0002, 3.3706,81,35,120,0.7857,0
 16, 1, 131, S1-15.jpg, 1, [181 10 240], purple, 1, 250, 1, 1, 4.3603, 1, 0.9639, 4.3613,108,35,138,0.7857,0
 16, 1, 132, S2-19.jpg, 2, [181 10 240], purple, 0, 250, 1, 0, 4.3497, 3, 0.2320, 4.3506,88,67,95,0.7019,0
 16, 1, 133, S2-19.jpg, 2, [10 240 94], green, 1, 239, 1, 0, 4.1858, 3, 0.2096, 4.1870,77,36,110,0.7019,0
 16, 1, 134, S1-15.jpg, 1, [181 10 240], purple, 1, 290, 1, 1, 5.0392, 2, 0.1215, 5.0402,87,37,85,0.7857,0
 16, 1, 135, S1-15.jpg, 1, [240 168 10], orange, NaN, 342, 1, 1, 5.9621, 2, 0.5204, 5.9636,109,40,101,0.7857,0
 16, 1, 136, S1-15.jpg, 1, [181 10 240], purple, 1, 309, 2, 0, 5.3761, 1, 0.7673, 5.3771,76,28,82,0.7857,0
 16, 1, 137, S2-19.jpg, 2, [240 168 10], orange, NaN, 246, 1, 0, 4.3096, 3, 0.4375, 4.3104,77,57,114,0.7019,1
 16, 1, 138, S2-19.jpg, 2, [10 240 94], green, 1, 433, 1, 0, 7.4912, 1, 0.4509, 7.4922,78,37,80,0.7019,0
 16, 1, 139, S1-15.jpg, 1, [181 10 240], purple, 1, 467, 2, 0, 8.1303, 2, 0.8625, 8.1312,82,80,92,0.7857,0
 16, 1, 140, S1-15.jpg, 1, [181 10 240], purple, 1, NaN, 1, 1, 9.6827, 1, 0.4900, 9.3552,129,56,83,0.7857,0
 16, 1, 141, S2-19.jpg, 2, [181 10 240], purple, 0, 260, 2, 1, 4.5072, 2, 0.0005, 4.5081,93,42,139,0.7019,0
 16, 1, 142, S2-19.jpg, 2, [10 240 94], green, 1, 237, 1, 0, 4.1573, 2, 0.9409, 4.1581,77,25,84,0.7019,0
 16, 1, 143, S2-19.jpg, 2, [10 240 94], green, 1, 303, 2, 1, 5.2410, 2, 0.2002, 5.2419,86,31,77,0.7019,0
 16, 1, 144, S1-15.jpg, 1, [240 168 10], orange, NaN, 366, 2, 0, 6.3299, 1, 0.8925, 6.3307,75,30,96,0.7857,0
 16, 1, 145, S1-15.jpg, 1, [240 168 10], orange, NaN, 333, 2, 0, 5.7714, 2, 1.0039, 5.7721,81,143,141,0.7857,0
 16, 1, 146, S1-15.jpg, 1, [181 10 240], purple, 1, 306, 2, 0, 5.3080, 1, 0.1614, 5.3095,112,58,95,0.7857,1
 16, 1, 147, S2-19.jpg, 2, [181 10 240], purple, 0, 353, 1, 0, 6.1347, 3, 1.1598, 6.1362,75,25,135,0.7019,0
 16, 1, 148, S2-19.jpg, 2, [10 240 94], green, 1, 286, 1, 0, 4.9425, 2, 0.1030, 4.9434,87,28,78,0.7019,0
 16, 1, 149, S2-19.jpg, 2, [240 168 10], orange, NaN, 328, 1, 0, 5.6932, 1, 0.0975, 5.6942,93,29,101,0.7019,0
 16, 1, 150, S2-19.jpg, 2, [10 240 94], green, 1, 225, 1, 0, 3.9384, 1, 0.2007, 3.9393,77,51,81,0.7019,0
 16, 1, 151, S2-19.jpg, 2, [10 240 94], green, 1, 196, 1, 0, 3.4495, 2, 0.3279, 3.4504,77,26,84,0.7019,0
 16, 1, 152, S1-15.jpg, 1, [181 10 240], purple, 1, 261, 1, 1, 4.5355, 2, 0.3351, 4.5365,117,25,97,0.7857,1
 16, 1, 153, S1-15.jpg, 1, [181 10 240], purple, 1, 349, 1, 1, 6.0614, 1, 0.0721, 6.0622,76,50,86,0.7857,0
 16, 1, 154, S2-19.jpg, 2, [10 240 94], green, 1, 382, 2, 1, 6.5933, 2, 0.9755, 6.5942,77,68,106,0.7019,0
 16, 1, 155, S2-19.jpg, 2, [240 168 10], orange, NaN, 203, 1, 0, 3.6355, 4, 0.2159, 3.6362,97,42,103,0.7019,0
 16, 1, 156, S1-15.jpg, 1, [181 10 240], purple, 1, 315, 1, 1, 5.4806, 2, 0.3740, 5.4817,104,67,77,0.7857,0
 16, 1, 157, S1-15.jpg, 1, [181 10 240], purple, 1, 369, 2, 0, 6.4066, 2, 0.6094, 6.4074,78,43,79,0.7857,0
 16, 1, 158, S1-15.jpg, 1, [181 10 240], purple, 1, 331, 2, 0, 5.7422, 2, 0.6624, 5.7432,98,33,111,0.7857,0
 16, 1, 159, S1-15.jpg, 1, [181 10 240], purple, 1, 312, 2, 0, 5.4021, 2, 0.5973, 5.4029,88,29,78,0.7857,0
 16, 1, 160, S1-15.jpg, 1, [181 10 240], purple, 1, 368, 2, 0, 6.3618, 2, 0.5938, 6.3626,90,55,107,0.7857,0
 16, 1, 161, S1-15.jpg, 1, [181 10 240], purple, 1, 431, 2, 0, 7.4524, 2, 0.6342, 7.4531,104,26,75,0.7857,0
 16, 1, 162, S1-15.jpg, 1, [181 10 240], purple, 1, 329, 2, 0, 5.6958, 2, 0.6458, 5.6966,82,69,100,0.7857,0
 16, 1, 163, S1-15.jpg, 1, [181 10 240], purple, 1, 359, 2, 0, 6.2187, 2, 0.6055, 6.2194,75,60,99,0.7857,0
 16, 1, 164, S2-19.jpg, 2, [10 240 94], green, 1, 382, 2, 1, 6.6590, 2, 0.7017, 6.6599,79,32,79,0.7019,0
 16, 1, 165, S1-15.jpg, 1, [181 10 240], purple, 1, 392, 2, 0, 6.7967, 3, 0.8762, 6.7976,133,34,105,0.7857,0
 16, 1, 166, S2-19.jpg, 2, [10 240 94], green, 1, 378, 2, 1, 6.5350, 3, 0.9482, 6.5358,88,23,89,0.7019,0
 16, 1, 167, S1-15.jpg, 1, [181 10 240], purple, 1, 329, 2, 0, 5.7139, 3, 0.8522, 5.7148,79,86,107,0.7857,0
 16, 1, 168, S2-19.jpg, 2, [10 240 94], green, 1, 376, 2, 1, 6.5608, 2, 0.8054, 6.5616,77,29,81,0.7019,0
 16, 1, 169, S2-19.jpg, 2, [240 168 10], orange, NaN, 345, 2, 1, 5.9903, 2, 0.6481, 5.9913,78,78,81,0.7019,0
 16, 1, 170, S2-19.jpg, 2, [240 168 10], orange, NaN, 390, 1, 0, 6.7649, 2, 0.5384, 6.7657,117,48,75,0.7019,0
 16, 1, 171, S1-15.jpg, 1, [181 10 240], purple, 1, 423, 2, 0, 7.3244, 2, 0.8582, 7.3252,76,54,126,0.7857,0
 16, 1, 172, S2-19.jpg, 2, [240 168 10], orange, NaN, 334, 2, 1, 5.7877, 2, 0.6252, 5.7886,98,34,90,0.7019,0
 16, 1, 173, S2-19.jpg, 2, [181 10 240], purple, 0, 410, 1, 0, 7.1047, 2, 0.6527, 7.1055,137,44,103,0.7019,0
 16, 1, 174, S2-19.jpg, 2, [10 240 94], green, 1, 364, 2, 1, 6.2811, 3, 0.9052, 6.2819,97,34,94,0.7019,0
 16, 1, 175, S2-19.jpg, 2, [10 240 94], green, 1, 377, 1, 0, 6.5402, 2, 0.6243, 6.5410,86,27,75,0.7019,0
 16, 1, 176, S1-15.jpg, 1, [181 10 240], purple, 1, 375, 2, 0, 6.5224, 3, 0.7889, 6.5233,82,26,117,0.7857,0
 16, 1, 177, S2-19.jpg, 2, [240 168 10], orange, NaN, 346, 2, 1, 5.9880, 2, 0.6004, 5.9894,87,38,84,0.7019,0
 16, 1, 178, S2-19.jpg, 2, [240 168 10], orange, NaN, 368, 2, 1, 6.3937, 3, 0.6507, 6.3946,79,48,101,0.7019,0
 16, 1, 179, S2-19.jpg, 2, [240 168 10], orange, NaN, 474, 2, 1, 8.2308, 2, 0.0005, 8.2318,90,31,80,0.7019,0
 16, 1, 180, S2-19.jpg, 2, [10 240 94], green, 1, 232, 1, 0, 4.0628, 3, 0.4566, 4.0637,134,37,102,0.7019,0
 16, 1, 181, S1-15.jpg, 1, [181 10 240], purple, 1, 349, 2, 0, 6.0729, 3, 0.5896, 6.0739,84,26,107,0.7857,0
 16, 1, 182, S2-19.jpg, 2, [181 10 240], purple, 0, 227, 1, 0, 3.9781, 3, 0.1836, 3.9790,96,37,129,0.7019,0
 16, 1, 183, S2-19.jpg, 2, [240 168 10], orange, NaN, 345, 2, 1, 5.9966, 2, 0.6903, 5.9974,80,36,79,0.7019,0
 16, 1, 184, S1-15.jpg, 1, [181 10 240], purple, 1, 430, 1, 1, 7.4420, 2, 0.4636, 7.4429,105,47,90,0.7857,1
 16, 1, 185, S2-19.jpg, 2, [181 10 240], purple, 0, 355, 1, 0, 6.1671, 2, 1.0232, 6.1678,84,35,82,0.7019,0
 16, 1, 186, S2-19.jpg, 2, [10 240 94], green, 1, 406, 2, 1, 7.0395, 3, 0.9345, 7.0403,89,59,96,0.7019,0
 16, 1, 187, S1-15.jpg, 1, [181 10 240], purple, 1, 301, 2, 0, 5.2397, 3, 0.7930, 5.2405,95,89,91,0.7857,0
 16, 1, 188, S1-15.jpg, 1, [181 10 240], purple, 1, 330, 1, 1, 5.7186, 2, 0.6061, 5.7195,90,31,84,0.7857,0
 16, 1, 189, S2-19.jpg, 2, [181 10 240], purple, 0, 289, 2, 1, 5.0218, 2, 0.5032, 5.0227,91,28,86,0.7019,1
 16, 1, 190, S2-19.jpg, 2, [10 240 94], green, 1, 331, 2, 1, 5.7289, 2, 0.5991, 5.7298,98,79,111,0.7019,0
 16, 1, 191, S2-19.jpg, 2, [240 168 10], orange, NaN, 329, 2, 1, 5.7174, 2, 0.2696, 5.7183,75,34,79,0.7019,1
 16, 1, 192, S1-15.jpg, 1, [181 10 240], purple, 1, 350, 2, 0, 6.0911, 2, 0.5937, 6.0925,80,47,104,0.7857,0
 16, 1, 193, S1-15.jpg, 1, [10 240 94], green, 0, 309, 1, 1, 5.3359, 2, 0.5821, 5.3367,126,26,81,0.7857,1
 16, 1, 194, S1-15.jpg, 1, [181 10 240], purple, 1, 338, 2, 0, 5.8618, 3, 1.2783, 5.8628,85,24,89,0.7857,0
 16, 1, 195, S1-15.jpg, 1, [181 10 240], purple, 1, 225, 1, 1, 3.9201, 3, 0.0801, 3.9210,132,50,76,0.7857,0
 16, 1, 196, S2-19.jpg, 2, [240 168 10], orange, NaN, 462, 2, 1, 8.0360, 1, 0.1829, 8.0370,105,33,81,0.7019,0
 16, 1, 197, S2-19.jpg, 2, [181 10 240], purple, 0, 469, 2, 1, 8.1413, 1, 0.1959, 8.1420,88,34,87,0.7019,0
 16, 1, 198, S1-15.jpg, 1, [181 10 240], purple, 1, 297, 1, 1, 5.1477, 3, 0.2397, 5.1485,143,31,109,0.7857,0
 16, 1, 199, S1-15.jpg, 1, [10 240 94], green, 0, 261, 1, 1, 4.5427, 2, 0.2091, 4.5435,85,26,83,0.7857,0
 16, 1, 200, S1-15.jpg, 1, [181 10 240], purple, 1, 264, 1, 1, 4.5724, 2, 0.4995, 4.5733,98,84,76,0.7857,0
 16, 1, 201, S2-19.jpg, 2, [10 240 94], green, 1, 415, 1, 0, 7.2513, 1, 0.0171, 7.2521,109,25,92,0.7019,0
 16, 1, 202, S2-19.jpg, 2, [181 10 240], purple, 0, 331, 1, 0, 5.7645, 2, 0.6122, 5.7656,103,27,77,0.7019,0
 16, 1, 203, S2-19.jpg, 2, [10 240 94], green, 1, 515, 2, 1, 8.9186, 1, 0.6730, 8.9195,89,44,75,0.7019,0
 16, 1, 204, S2-19.jpg, 2, [181 10 240], purple, 0, 319, 1, 0, 5.5503, 2, 0.1137, 5.5511,115,58,78,0.7019,0
 16, 1, 205, S2-19.jpg, 2, [240 168 10], orange, NaN, 273, 1, 0, 4.7716, 3, 0.0971, 4.7725,103,49,82,0.7019,0
 16, 1, 206, S2-19.jpg, 2, [10 240 94], green, 1, 463, 2, 1, 8.0453, 1, 0.1104, 8.0460,92,63,85,0.7019,0
 16, 1, 207, S2-19.jpg, 2, [240 168 10], orange, NaN, 332, 1, 0, 5.7640, 2, 0.1579, 5.7650,87,51,86,0.7019,0
 16, 1, 208, S1-15.jpg, 1, [181 10 240], purple, 1, 496, 2, 0, 8.5873, 2, 0.0343, 8.5880,94,27,80,0.7857,0
 16, 1, 209, S2-19.jpg, 2, [10 240 94], green, 1, 292, 1, 0, 5.0969, 2, 0.3668, 5.0982,83,83,114,0.7019,0
 16, 1, 210, S2-19.jpg, 2, [240 168 10], orange, NaN, 282, 1, 0, 4.8975, 3, 0.0138, 4.8983,95,85,82,0.7019,0
 16, 1, 211, S2-19.jpg, 2, [240 168 10], orange, NaN, 348, 1, 0, 6.0372, 2, 0.5497, 6.0380,80,41,85,0.7019,0
 16, 1, 212, S2-19.jpg, 2, [10 240 94], green, 1, 416, 2, 1, 7.2328, 2, 0.3049, 7.2336,89,29,84,0.7019,0
 16, 1, 213, S2-19.jpg, 2, [10 240 94], green, 1, 385, 1, 0, 6.6784, 2, 0.7877, 6.6792,79,27,195,0.7019,0
 16, 1, 214, S2-19.jpg, 2, [10 240 94], green, 1, 467, 2, 1, 8.0884, 2, 0.7462, 8.0891,90,70,92,0.7019,0
 16, 1, 215, S2-19.jpg, 2, [10 240 94], green, 1, 477, 2, 1, 8.2406, 3, 1.1780, 8.2416,79,30,106,0.7019,0
 16, 1, 216, S1-15.jpg, 1, [181 10 240], purple, 1, NaN, 2, 0, 9.5220, 1, 0.8076, 9.3651,82,24,77,0.7857,0
 16, 1, 217, S2-19.jpg, 2, [10 240 94], green, 1, 232, 1, 0, 4.0368, 2, 0.0156, 4.0377,78,33,81,0.7019,0
 16, 1, 218, S2-19.jpg, 2, [181 10 240], purple, 0, 257, 1, 0, 4.4694, 3, 0.2853, 4.4703,88,36,88,0.7019,0
 16, 1, 219, S2-19.jpg, 2, [10 240 94], green, 1, 263, 1, 0, 4.5961, 3, 0.0988, 4.5968,83,41,93,0.7019,0
 16, 1, 220, S2-19.jpg, 2, [10 240 94], green, 1, 389, 1, 0, 6.7683, 2, 0.1619, 6.7690,97,52,137,0.7019,0
 16, 1, 221, S2-19.jpg, 2, [10 240 94], green, 1, 368, 2, 1, 6.3809, 2, 0.3743, 6.3820,92,24,119,0.7019,0
 16, 1, 222, S2-19.jpg, 2, [240 168 10], orange, NaN, 277, 1, 0, 4.8091, 3, 0.1135, 4.8101,83,30,109,0.7019,0
 16, 1, 223, S1-15.jpg, 1, [10 240 94], green, 0, 249, 1, 1, 4.3362, 2, 0.1296, 4.3377,85,24,76,0.7857,0
 16, 1, 224, S2-19.jpg, 2, [240 168 10], orange, NaN, 357, 2, 1, 6.1804, 2, 0.2955, 6.1814,135,32,88,0.7019,0
 16, 1, 225, S2-19.jpg, 2, [10 240 94], green, 1, 303, 2, 1, 5.2688, 1, 0.3311, 5.2698,111,45,96,0.7019,0
 16, 1, 226, S2-19.jpg, 2, [10 240 94], green, 1, 344, 2, 1, 5.9653, 2, 0.7614, 5.9663,83,66,80,0.7019,0
 16, 1, 227, S2-19.jpg, 2, [240 168 10], orange, NaN, 360, 2, 1, 6.2470, 2, 0.4918, 6.2480,122,38,86,0.7019,0
 16, 1, 228, S2-19.jpg, 2, [10 240 94], green, 1, 411, 2, 1, 7.1229, 1, 0.6462, 7.1239,88,36,121,0.7019,0
 16, 1, 229, S1-15.jpg, 1, [181 10 240], purple, 1, 429, 2, 0, 7.4163, 2, 0.6621, 7.4177,84,25,82,0.7857,0
 16, 1, 230, S2-19.jpg, 2, [240 168 10], orange, NaN, 300, 1, 0, 5.1987, 3, 0.7178, 5.1994,97,46,93,0.7019,0
 16, 1, 231, S1-15.jpg, 1, [181 10 240], purple, 1, 428, 2, 0, 7.3938, 2, 1.0601, 7.3946,97,51,92,0.7857,0
 16, 1, 232, S1-15.jpg, 1, [181 10 240], purple, 1, 394, 2, 0, 6.8190, 2, 0.6835, 6.8199,101,41,76,0.7857,0
 16, 1, 233, S1-15.jpg, 1, [181 10 240], purple, 1, 417, 2, 0, 7.2459, 2, 0.8332, 7.2473,124,45,110,0.7857,0
 16, 1, 234, S2-19.jpg, 2, [181 10 240], purple, 0, 470, 2, 1, 8.1599, 2, 0.5731, 8.1608,88,39,78,0.7019,0
 16, 1, 235, S2-19.jpg, 2, [10 240 94], green, 1, 387, 2, 1, 6.6897, 2, 0.7135, 6.6907,92,30,93,0.7019,0
 16, 1, 236, S1-15.jpg, 1, [181 10 240], purple, 1, 429, 2, 0, 7.4491, 2, 0.1741, 7.4500,92,44,84,0.7857,0