"subID","block","trial","targetImg","targetIdx","cue_rgb","cue_string","congruent","respFrame","response","accuracy","RT","confResp","confRT","flickerDuration","noise1frames","signal1frames","noise2frames","coherence","catch_trial","pilotGroup","totalNoise","cueIdx","firstNoiseRT","secondNoiseRT","firstSignalRT","secondSignalRT","respPeriod","firstNoise_quartile","secondNoise_quartile","totalNoise_quartile","cueLevel","logRT","zlogRT","zConf","logConfRT","zlogconfRT","rt_quartile"
10,1,3," S3-12.jpg",1," [240 37 33]"," red","congruent",162,1,1,3.0587,3,1.8425,3.0595,99,51,116,0.7703,0,"group1",215,1,0,1,0,0,3,3,4,4,0.64,1.11798998909435,1.20278507521695,0.603809317498476,0.611123345081355,1.01723706263723,4
10,1,4," S3-12.jpg",1," [10 144 240]"," blue","incongruent",183,1,1,3.2626,3,1.6873,3.2633,86,23,85,0.7703,0,"group1",171,2,0,1,0,0,3,2,2,2,0.44,1.18252442352007,1.32009364858611,0.603809317498476,0.523129618222155,0.968873857810661,4
10,1,5," S3-12.jpg",1," [240 37 33]"," red","congruent",141,2,0,2.501,3,0.3282,2.5017,101,26,84,0.7703,0,"group1",185,1,0,1,0,0,3,3,2,3,0.64,0.916690651895482,0.836869757648969,0.603809317498476,-1.11413210032615,0.0690003477869235,4
10,1,6," S3-12.jpg",1," [240 239 10]"," yellow","neutral",166,1,1,3.0437,3,0.6099,3.0444,87,30,92,0.7703,0,"group1",179,3,0,1,0,0,3,2,3,2,0.5,1.11307388060911,1.19384873482654,0.603809317498476,-0.494460269679726,0.409585031951564,4
10,1,7," S3-12.jpg",1," [240 239 10]"," yellow","neutral",162,2,0,2.9807,2,1.4512,2.9815,85,37,81,0.7703,0,"group1",166,3,0,1,0,0,3,2,2,1,0.5,1.09215817226164,1.15582884778358,-0.738588183011529,0.372390800378735,0.886024629997615,4
10,1,8," S3-12.jpg",1," [10 144 240]"," blue","incongruent",142,2,0,2.47,2,0.9526,2.4715,81,36,138,0.7703,0,"group1",219,2,0,1,0,0,3,2,4,4,0.44,0.904218150639886,0.814197654892368,-0.738588183011529,-0.048560190615377,0.654661103004684,4
10,1,9," S3-12.jpg",1," [10 144 240]"," blue","incongruent",173,1,1,3.1538,2,1.3328,3.1546,107,35,77,0.7703,0,"group1",184,2,0,1,0,0,3,4,1,3,0.44,1.14860807498935,1.25844162520611,-0.738588183011529,0.287281992430441,0.839247037341095,4
10,1,10," S3-12.jpg",1," [10 144 240]"," blue","incongruent",166,1,1,3.0742,1,1.438,3.0749,79,43,98,0.7703,0,"group1",177,2,0,1,0,0,3,1,3,2,0.44,1.12304470480869,1.21197337127181,-2.08098568352153,0.363253259298855,0.881002445046129,4
10,1,11," S3-12.jpg",1," [240 239 10]"," yellow","neutral",112,1,1,2.1003,2,1.0249,2.1012,75,45,79,0.7703,0,"group1",154,3,0,0,1,0,2,1,1,1,0.5,0.742080191669124,0.519468603261172,-0.738588183011529,0.0245950468553801,0.694868761666489,3
10,1,12," S3-12.jpg",1," [10 144 240]"," blue","incongruent",225,2,0,4.1179,1,0.5975,4.1188,95,31,134,0.7703,0,"group1",229,2,0,1,0,0,3,3,4,4,0.44,1.41534332467791,1.74330419333241,-2.08098568352153,-0.515000995176471,0.398295416771665,4
10,1,13," S3-12.jpg",1," [240 37 33]"," red","congruent",220,2,0,3.9741,2,2.5685,3.975,77,27,133,0.7703,0,"group1",210,1,0,1,0,0,3,1,4,4,0.64,1.37979830737619,1.67869162940196,-0.738588183011529,0.943322070925185,1.1998204761892,4
10,1,14," S3-12.jpg",1," [10 144 240]"," blue","incongruent",193,1,1,3.3828,2,1.1653,3.3837,75,54,86,0.7703,0,"group1",161,2,0,1,0,0,3,1,2,1,0.44,1.21870376892593,1.38585927329112,-0.738588183011529,0.152978564597081,0.765431045894239,4
10,1,15," S3-12.jpg",1," [10 144 240]"," blue","incongruent",209,1,1,3.8225,2,0.8955,3.8234,84,26,88,0.7703,0,"group1",172,2,0,0,0,1,4,2,2,2,0.44,1.34090465882108,1.6079920336633,-0.738588183011529,-0.110373057481371,0.620687450019839,4
10,1,16," S3-12.jpg",1," [240 37 33]"," red","congruent",233,1,1,4.2286,1,1.1964,4.2296,99,50,91,0.7703,0,"group1",190,1,0,1,0,0,3,3,3,3,0.64,1.44187096900863,1.79152527311677,-2.08098568352153,0.179317047773656,0.77990723075601,4
10,1,17," S3-12.jpg",1," [240 239 10]"," yellow","neutral",464,2,0,8.1881,1,0.305,8.1896,117,32,83,0.7703,0,"group1",200,3,0,0,0,1,4,4,2,3,0.5,2.10268188071909,2.99272562467104,-2.08098568352153,-1.18744350237473,0.0287068577853922,4
10,1,18," S3-12.jpg",1," [240 37 33]"," red","congruent",220,1,1,3.9834,2,1.2385,3.9843,109,25,94,0.7703,0,"group1",203,1,0,1,0,0,3,4,3,3,0.64,1.38213572597103,1.68294051208246,-0.738588183011529,0.213900969947277,0.798915282482986,4
10,1,19," S3-12.jpg",1," [240 37 33]"," red","congruent",166,1,1,3.0334,2,0.6055,3.0345,110,73,103,0.7703,0,"group1",213,1,0,0,1,0,2,4,4,4,0.64,1.10968410263516,1.18768690786235,-0.738588183011529,-0.50170071598899,0.405605530225821,4
10,1,20," S3-12.jpg",1," [240 37 33]"," red","congruent",191,1,1,3.4492,2,0.2593,3.4499,83,24,101,0.7703,0,"group1",184,1,0,1,0,0,3,2,3,3,0.64,1.23814232009603,1.4211940325777,-0.738588183011529,-1.34976958643752,-0.0605109754902257,4
10,1,21," S3-12.jpg",1," [240 37 33]"," red","congruent",156,1,1,2.8804,2,0.4559,2.8819,79,45,79,0.7703,0,"group1",158,1,0,1,0,0,3,1,1,1,0.64,1.05792917339257,1.09360849889671,-0.738588183011529,-0.785481791762741,0.249633476496218,4
10,1,22," S3-12.jpg",1," [240 239 10]"," yellow","neutral",203,1,1,3.5813,1,2.1432,3.5821,119,59,81,0.7703,0,"group1",200,3,0,1,0,0,3,4,2,3,0.5,1.27572586298904,1.4895121613127,-2.08098568352153,0.762300039248262,1.10032695649634,4
10,1,23," S3-12.jpg",1," [240 37 33]"," red","congruent",243,1,1,4.4253,2,0.3872,4.4262,77,23,75,0.7703,0,"group1",152,1,0,0,0,1,4,1,1,1,0.64,1.48733807277198,1.87417387963466,-0.738588183011529,-0.948813923579715,0.159862698194432,4
10,1,25," S3-12.jpg",1," [240 239 10]"," yellow","neutral",381,1,1,6.6723,1,1.1172,6.6732,84,29,97,0.7703,0,"group1",181,3,0,0,0,1,4,2,3,2,0.5,1.89796462807437,2.62059733276746,-2.08098568352153,0.110825555088885,0.742262864415081,4
10,1,26," S3-12.jpg",1," [10 144 240]"," blue","incongruent",421,1,1,7.4039,1,0.6184,7.4046,89,48,94,0.7703,0,"group1",183,2,0,0,0,1,4,3,3,2,0.44,2.00200688840718,2.80972193327501,-2.08098568352153,-0.480619781708925,0.417192055526127,4
10,1,27," S3-12.jpg",1," [240 37 33]"," red","congruent",313,1,1,5.5988,1,0.7145,5.5996,115,23,86,0.7703,0,"group1",201,1,0,0,0,1,4,4,2,3,0.64,1.72255228906435,2.30173854948799,-2.08098568352153,-0.336172281612215,0.496583442653551,4
10,1,28," S3-12.jpg",1," [240 37 33]"," red","congruent",372,2,0,6.5891,1,1.4417,6.5906,91,30,80,0.7703,0,"group1",171,1,0,0,0,1,4,3,1,2,0.64,1.88541676862635,2.59778824636602,-2.08098568352153,0.365822972835721,0.882414813706544,4
10,1,29," S3-12.jpg",1," [240 239 10]"," yellow","neutral",151,1,1,2.7472,2,0.7787,2.7481,115,29,106,0.7703,0,"group1",221,3,0,1,0,0,3,4,4,4,0.5,1.01058221116107,1.0075427474546,-0.738588183011529,-0.250129416399197,0.543874412847608,4
10,1,30," S3-12.jpg",1," [10 144 240]"," blue","incongruent",369,2,0,6.4996,2,1.2082,6.5005,195,91,92,0.7703,0,"group1",287,2,0,1,0,0,3,4,3,4,0.44,1.87174063654648,2.57292822306568,-0.738588183011529,0.189131648722504,0.785301542065721,4
10,1,31," S3-12.jpg",1," [10 144 240]"," blue","incongruent",169,2,0,3.1297,3,0.9646,3.1307,88,23,76,0.7703,0,"group1",164,2,0,1,0,0,3,2,1,1,0.44,1.14093715331311,1.24449767595988,0.603809317498476,-0.0360417713472655,0.661541489786544,4
10,1,32," S3-12.jpg",1," [10 144 240]"," blue","incongruent",157,2,0,2.8578,2,0.348,2.8585,103,39,78,0.7703,0,"group1",181,2,0,1,0,0,3,4,1,2,0.44,1.05005209805273,1.07928981029796,-0.738588183011529,-1.05555279920766,0.101196764960207,4
10,1,33," S3-12.jpg",1," [10 144 240]"," blue","incongruent",89,1,1,1.6229,2,0.6682,1.6237,94,55,86,0.7703,0,"group1",180,2,1,0,0,0,1,3,2,2,0.44,0.484214672339699,0.0507291393947697,-0.738588183011529,-0.403167749059481,0.459761323279193,2
10,1,34," S3-12.jpg",1," [240 37 33]"," red","congruent",167,1,1,3.0936,1,1.4565,3.0946,78,25,120,0.7703,0,"group1",198,1,0,1,0,0,3,1,4,3,0.64,1.12933546131095,1.22340850163685,-2.08098568352153,0.376036297417352,0.88802827191922,4
10,1,35," S3-12.jpg",1," [10 144 240]"," blue","incongruent",192,1,1,3.481,2,1.3492,3.4819,84,24,107,0.7703,0,"group1",191,2,0,1,0,0,3,2,4,3,0.44,1.2473196088293,1.4378762063393,-0.738588183011529,0.299511824205358,0.84596881036102,4
10,1,36," S3-12.jpg",1," [240 37 33]"," red","congruent",174,1,1,3.1889,2,0.6492,3.1898,79,65,119,0.7703,0,"group1",198,1,0,1,0,0,3,1,4,3,0.64,1.15967602974384,1.27856058950661,-0.738588183011529,-0.432014443341701,0.443906572788026,4
10,1,38," S3-12.jpg",1," [240 239 10]"," yellow","neutral",55,2,0,1.1229,2,0.5756,1.1239,87,56,97,0.7703,0,"group1",184,3,1,0,0,0,1,2,3,3,0.5,0.115914624596356,-0.618754579755134,-0.738588183011529,-0.552342303968924,0.377771847307316,2
10,1,39," S3-12.jpg",1," [240 37 33]"," red","congruent",188,1,1,3.4267,2,0.8083,3.4275,96,31,83,0.7703,0,"group1",179,1,0,1,0,0,3,3,2,2,0.64,1.23159769893806,1.40929743538713,-0.738588183011529,-0.212822002242338,0.564379353106645,4
10,1,40," S3-12.jpg",1," [10 144 240]"," blue","incongruent",94,1,1,1.7644,2,0.8501,1.7653,110,40,83,0.7703,0,"group1",193,2,1,0,0,0,1,4,2,3,0.44,0.567810689248648,0.202687230764125,-0.738588183011529,-0.162401289358824,0.592091638422042,3
10,1,41," S3-12.jpg",1," [240 37 33]"," red","congruent",196,2,0,3.553,2,0.5873,3.5537,80,38,195,0.7703,0,"group1",275,1,0,1,0,0,3,1,4,4,0.64,1.26779231703889,1.47509082229498,-0.738588183011529,-0.532219516453663,0.388831754973682,4
10,1,42," S3-12.jpg",1," [10 144 240]"," blue","incongruent",65,1,1,1.135,3,1.3668,1.1358,103,26,88,0.7703,0,"group1",191,2,1,0,0,0,1,4,2,3,0.44,0.126632650933366,-0.599271703828253,0.603809317498476,0.312472241259,0.85309212843125,2
10,1,43," S3-12.jpg",1," [240 37 33]"," red","congruent",60,1,1,1.2221,3,0.9124,1.2231,93,143,76,0.7703,0,"group1",169,1,1,0,0,0,1,3,1,1,0.64,0.200570690461818,-0.464869566241087,0.603809317498476,-0.0916767885719041,0.630963313027756,2
10,1,44," S3-12.jpg",1," [10 144 240]"," blue","incongruent",49,1,1,0.9105,3,0.3772,0.9115,77,25,79,0.7703,0,"group1",156,2,1,0,0,0,1,1,1,1,0.44,-0.0937613798144744,-0.99989672760323,0.603809317498476,-0.974979728222835,0.145481421090075,1
10,1,45," S3-12.jpg",1," [240 37 33]"," red","congruent",83,1,1,1.61,4,0.5373,1.6109,90,44,102,0.7703,0,"group1",192,1,1,0,0,0,1,3,3,3,0.64,0.476234178996372,0.0362224609490878,1.94620681800848,-0.621198681247361,0.339926932711741,2
10,1,47," S3-12.jpg",1," [240 239 10]"," yellow","neutral",51,1,1,1.0286,4,0.431,1.0294,76,24,95,0.7703,0,"group1",171,3,1,0,0,0,1,1,3,2,0.5,0.0281986543586787,-0.778201786844517,1.94620681800848,-0.841647188878389,0.218763791783166,1
10,1,48," S3-12.jpg",1," [10 144 240]"," blue","incongruent",56,1,1,1.1745,4,0.4482,1.1754,77,34,91,0.7703,0,"group1",168,2,1,0,0,0,1,1,3,1,0.44,0.16084252511683,-0.537086119166161,1.94620681800848,-0.80251571761531,0.240271272229922,2
10,1,49," S3-12.jpg",1," [240 239 10]"," yellow","neutral",47,1,1,1.0072,4,0.3348,1.008,81,57,80,0.7703,0,"group1",161,3,1,0,0,0,1,2,1,1,0.5,0.00717420374800045,-0.816419341998702,1.94620681800848,-1.09422194036682,0.0799433908720708,1
10,1,50," S3-12.jpg",1," [240 37 33]"," red","congruent",82,1,1,1.5704,4,0.2909,1.5714,135,87,81,0.7703,0,"group1",216,1,1,0,0,0,1,4,2,4,0.64,0.451330363980114,-0.00904687528983639,1.94620681800848,-1.23477571348098,0.00269207806945496,2
10,1,51," S3-12.jpg",1," [240 37 33]"," red","congruent",88,1,1,1.5807,4,0.5287,1.5815,91,54,130,0.7703,0,"group1",221,1,1,0,0,0,1,3,4,4,0.64,0.457867786901213,0.00283663718237157,1.94620681800848,-0.637334115740733,0.33105855821253,2
10,1,52," S3-12.jpg",1," [240 37 33]"," red","congruent",47,1,1,0.9644,4,0.6301,0.9652,94,25,88,0.7703,0,"group1",182,1,1,0,0,0,1,3,2,2,0.64,-0.036249132675121,-0.895352855433128,1.94620681800848,-0.461876742034127,0.427493624731342,1
10,1,53," S3-12.jpg",1," [10 144 240]"," blue","incongruent",69,1,1,1.2756,4,0.3691,1.2763,76,37,75,0.7703,0,"group1",151,2,1,0,0,0,1,1,1,1,0.44,0.243416656153766,-0.38698557834108,1.94620681800848,-0.996687668946184,0.133550279848082,2
10,1,54," S3-12.jpg",1," [240 37 33]"," red","congruent",86,1,1,1.6817,4,0.4717,1.6826,82,70,78,0.7703,0,"group1",160,1,0,0,1,0,2,2,1,1,0.64,0.519805186546567,0.115424406103711,1.94620681800848,-0.751412088691921,0.268358902578365,3
10,1,56," S3-12.jpg",1," [240 239 10]"," yellow","neutral",38,1,1,0.7131,4,0.8063,0.7139,98,59,89,0.7703,0,"group1",187,3,1,0,0,0,1,3,3,3,0.5,-0.338133615947879,-1.44410854485931,1.94620681800848,-0.215299397291161,0.563017724630853,1
10,1,57," S3-12.jpg",1," [240 37 33]"," red","congruent",46,1,1,0.8992,4,0.6659,0.9,141,40,100,0.7703,0,"group1",241,1,1,0,0,0,1,4,3,4,0.64,-0.10624979984271,-1.02259776698142,1.94620681800848,-0.40661576986556,0.457866218452487,1
10,1,58," S3-12.jpg",1," [10 144 240]"," blue","incongruent",53,1,1,1.0393,4,0.4781,1.0403,75,46,77,0.7703,0,"group1",152,2,1,0,0,0,1,1,1,1,0.44,0.0385474096122388,-0.75939015975357,1.94620681800848,-0.737935363350079,0.275765994553704,1
10,1,59," S3-12.jpg",1," [240 239 10]"," yellow","neutral",46,1,1,0.9086,4,0.2626,0.9094,80,24,90,0.7703,0,"group1",170,3,1,0,0,0,1,1,3,2,0.5,-0.0958503256568342,-1.00369394468266,1.94620681800848,-1.33712331711344,-0.0535603196259616,1
10,1,60," S3-12.jpg",1," [240 37 33]"," red","congruent",65,1,1,1.3078,4,0.264,1.3087,90,35,102,0.7703,0,"group1",192,1,1,0,0,0,1,3,3,3,0.64,0.268346336145039,-0.341669225600868,1.94620681800848,-1.33180617583582,-0.050637906837231,2
10,1,61," S4-20.jpg",2," [10 144 240]"," blue","congruent",91,2,1,1.635,3,1.6604,1.6358,107,77,195,0.7324,0,"group1",302,2,1,0,0,0,1,4,4,4,0.56,0.491642804349217,0.0642317535663914,0.603809317498476,0.507058537196747,0.960040853332286,2
10,1,63," S4-20.jpg",2," [10 144 240]"," blue","congruent",155,2,1,2.7976,3,0.3029,2.7987,79,36,84,0.7324,0,"group1",163,2,0,1,0,0,3,1,2,1,0.56,1.02876190676703,1.04058920048077,0.603809317498476,-1.19435256094895,0.0249094937355837,4
10,1,64," S3-12.jpg",1," [240 239 10]"," yellow","neutral",142,1,1,2.5623,3,0.42,2.563,130,27,121,0.7703,0,"group1",251,3,0,0,1,0,2,4,4,4,0.5,0.940905292638074,0.880886335549406,0.603809317498476,-0.867500567704723,0.204554230485261,4
10,1,65," S3-12.jpg",1," [240 239 10]"," yellow","neutral",74,1,1,1.3715,3,0.3971,1.3725,93,37,117,0.7703,0,"group1",210,3,1,0,0,0,1,3,4,4,0.5,0.315905031395521,-0.255218592837448,0.603809317498476,-0.923567140844931,0.173738861509666,2
10,1,66," S4-20.jpg",2," [10 144 240]"," blue","congruent",108,1,0,1.9488,3,0.5608,1.9495,88,28,104,0.7324,0,"group1",192,2,0,0,1,0,2,2,4,3,0.56,0.667213798533441,0.383378935005835,0.603809317498476,-0.578390943261757,0.363454966746176,3
10,1,67," S3-12.jpg",1," [10 144 240]"," blue","incongruent",57,1,1,1.0669,3,0.1927,1.0677,140,34,108,0.7703,0,"group1",248,2,1,0,0,0,1,4,4,4,0.44,0.0647572472152785,-0.711746778591084,0.603809317498476,-1.64662070356182,-0.223666599111575,2
10,1,68," S3-12.jpg",1," [240 239 10]"," yellow","neutral",58,1,1,1.0738,3,0.3737,1.0747,84,28,87,0.7703,0,"group1",171,3,1,0,0,0,1,2,2,2,0.5,0.0712037590063321,-0.700028521382424,0.603809317498476,-0.984301942490699,0.140357735866521,2
10,1,69," S4-20.jpg",2," [240 37 33]"," red","incongruent",143,2,1,2.6016,2,2.2394,2.6024,83,38,87,0.7324,0,"group1",170,1,0,1,0,0,3,2,2,2,0.36,0.956126640371354,0.908555201066502,-0.738588183011529,0.80620797284396,1.12445968120066,4
10,1,70," S3-12.jpg",1," [240 37 33]"," red","congruent",154,2,0,2.7533,3,0.4081,2.7541,134,25,92,0.7703,0,"group1",226,1,0,0,1,0,2,4,3,4,0.64,1.01280019225396,1.01157452057048,0.603809317498476,-0.896243036570377,0.188756764477311,4
10,1,71," S4-20.jpg",2," [240 37 33]"," red","incongruent",51,1,0,0.9162,2,1.3871,0.9172,82,33,80,0.7324,0,"group1",162,1,1,0,0,0,1,2,1,1,0.36,-0.0875205975294953,-0.988552438727481,-0.738588183011529,0.327215236787107,0.861195189159932,1
10,1,72," S4-20.jpg",2," [240 37 33]"," red","incongruent",54,1,0,0.9885,3,0.2443,0.9894,78,58,99,0.7324,0,"group1",177,1,1,0,0,0,1,1,3,2,0.36,-0.0115666363714654,-0.850485825074255,0.603809317498476,-1.40935830071844,-0.0932621873889081,1
10,1,73," S3-12.jpg",1," [240 239 10]"," yellow","neutral",46,1,1,0.8548,3,2.3209,0.8557,95,33,87,0.7703,0,"group1",182,3,1,0,0,0,1,3,2,2,0.5,-0.156887755537144,-1.11464577815106,0.603809317498476,0.841955041486912,1.14410702271508,1
10,1,74," S3-12.jpg",1," [240 37 33]"," red","congruent",90,1,1,1.6238,3,0.8119,1.6246,76,42,82,0.7703,0,"group1",158,1,0,0,1,0,2,1,2,1,0.64,0.484769081446209,0.0517369260427241,0.603809317498476,-0.208378099113736,0.566821815824265,2
10,1,75," S3-12.jpg",1," [240 239 10]"," yellow","neutral",57,1,1,1.0173,3,0.3789,1.018,77,43,109,0.7703,0,"group1",186,3,1,0,0,0,1,1,4,3,0.5,0.0171520588175657,-0.798281925069106,0.603809317498476,-0.970482960957582,0.147952939050155,1
10,1,76," S3-12.jpg",1," [240 37 33]"," red","congruent",79,1,1,1.4366,1,1.786,1.4374,195,33,76,0.7703,0,"group1",271,1,1,0,0,0,1,4,1,4,0.64,0.362279210658564,-0.170921134295759,-2.08098568352153,0.579978482454307,1.00011919044008,2
10,1,78," S3-12.jpg",1," [240 37 33]"," red","congruent",56,2,0,1.0296,3,0.8377,1.0303,103,63,84,0.7703,0,"group1",187,1,1,0,0,0,1,4,2,3,0.64,0.0291703772997799,-0.776435420826978,0.603809317498476,-0.177095237822373,0.584015534992636,1
10,1,79," S3-12.jpg",1," [240 239 10]"," yellow","neutral",100,2,0,1.7996,3,1.6436,1.8004,79,39,108,0.7703,0,"group1",187,3,0,0,1,0,2,1,4,3,0.5,0.58756441798488,0.238594909469145,0.603809317498476,0.496888958027118,0.954451438519025,3
10,1,80," S4-20.jpg",2," [240 37 33]"," red","incongruent",183,2,1,3.2813,3,0.2943,3.2821,77,65,88,0.7324,0,"group1",165,1,0,1,0,0,3,1,2,1,0.36,1.18823968533694,1.33048266363109,0.603809317498476,-1.22315562374271,0.00907872402905171,4
10,1,81," S4-20.jpg",2," [10 144 240]"," blue","congruent",74,2,1,1.2852,3,0.519,1.2865,79,45,82,0.7324,0,"group1",161,2,1,0,0,0,1,1,2,1,0.56,0.250914348259566,-0.37335652011318,0.603809317498476,-0.655851395816248,0.32088107123603,2
10,1,82," S3-12.jpg",1," [10 144 240]"," blue","incongruent",57,2,0,1.0585,3,0.3447,1.0592,84,24,80,0.7703,0,"group1",164,2,1,0,0,0,1,2,1,1,0.44,0.0568528115927828,-0.726115201812189,0.603809317498476,-1.06508080545932,0.095959972129793,2
10,1,83," S4-20.jpg",2," [240 37 33]"," red","incongruent",60,2,1,1.1036,3,0.4471,1.1045,100,31,94,0.7324,0,"group1",194,1,1,0,0,0,1,3,3,3,0.36,0.0985775633609939,-0.650269319723532,0.603809317498476,-0.804972995742202,0.238920700437948,2
10,1,84," S3-12.jpg",1," [10 144 240]"," blue","incongruent",72,2,0,1.3321,3,0.4092,1.3331,78,45,99,0.7703,0,"group1",177,2,1,0,0,0,1,1,3,2,0.44,0.28675664437528,-0.308203572527515,0.603809317498476,-0.893551244904666,0.190236229847468,2
10,1,85," S4-20.jpg",2," [10 144 240]"," blue","congruent",43,2,1,0.7875,3,0.1365,0.7882,79,66,110,0.7324,0,"group1",189,2,1,0,0,0,1,1,4,3,0.56,-0.238891908282349,-1.26371023117511,0.603809317498476,-1.99143066435712,-0.413181412899035,1
10,1,86," S4-20.jpg",2," [240 37 33]"," red","incongruent",54,2,1,0.9612,3,0.1967,0.9621,102,81,103,0.7324,0,"group1",205,1,1,0,0,0,1,3,4,4,0.36,-0.0395727751198231,-0.901394463406403,0.603809317498476,-1.62607555358712,-0.212374552145447,1
10,1,87," S4-20.jpg",2," [10 144 240]"," blue","congruent",67,2,1,1.2361,3,0.4026,1.237,82,57,81,0.7324,0,"group1",163,2,1,0,0,0,1,2,2,1,0.56,0.21196126191164,-0.444164159917642,0.603809317498476,-0.909811765776446,0.181299105241222,2
10,1,88," S3-12.jpg",1," [240 37 33]"," red","congruent",49,2,0,0.8807,3,0.28,0.8815,104,32,94,0.7703,0,"group1",198,1,1,0,0,0,1,4,3,3,0.64,-0.127038233170723,-1.0603862976781,0.603809317498476,-1.27296567581289,-0.0182979292470038,1
10,1,89," S4-20.jpg",2," [10 144 240]"," blue","congruent",57,2,1,1.053,3,0.1635,1.0539,78,143,80,0.7324,0,"group1",158,2,1,0,0,0,1,1,1,1,0.56,0.0516432331518384,-0.735585002240445,0.603809317498476,-1.81094228864483,-0.313981201759479,2
10,1,90," S3-12.jpg",1," [10 144 240]"," blue","incongruent",102,2,0,1.8336,3,0.1489,1.8346,82,46,95,0.7703,0,"group1",177,2,0,0,1,0,2,2,3,2,0.44,0.606281247538283,0.272617746927041,0.603809317498476,-1.90448033929217,-0.365391683665473,3
10,1,91," S3-12.jpg",1," [10 144 240]"," blue","incongruent",126,1,1,2.2821,3,1.0445,2.2835,97,76,77,0.7703,0,"group1",174,2,0,0,1,0,2,3,1,2,0.44,0.825096071689228,0.670372140865629,0.603809317498476,0.0435383020144834,0.705280373517044,3
10,1,92," S3-12.jpg",1," [240 239 10]"," yellow","neutral",160,2,0,2.8836,3,0.5604,2.885,81,34,103,0.7703,0,"group1",184,3,0,1,0,0,3,2,4,3,0.5,1.05903951354829,1.09562683873001,0.603809317498476,-0.579104464519285,0.363062800441171,4
10,1,93," S3-12.jpg",1," [10 144 240]"," blue","incongruent",100,2,0,1.7874,2,0.3939,1.7883,85,63,109,0.7703,0,"group1",194,2,0,0,1,0,2,2,4,3,0.44,0.580762049965155,0.22622978850656,-0.738588183011529,-0.931658209005277,0.169291840106303,3
10,1,94," S4-20.jpg",2," [10 144 240]"," blue","congruent",123,2,1,2.2175,2,1.7302,2.2184,95,43,85,0.7324,0,"group1",180,2,0,0,1,0,2,3,2,2,0.56,0.796380435201597,0.618173800867333,-0.738588183011529,0.548237008764137,0.982673408242087,3
10,1,95," S4-20.jpg",2," [240 37 33]"," red","incongruent",135,2,1,2.4326,2,1.7167,2.4334,90,30,76,0.7324,0,"group1",166,1,0,1,0,0,3,3,1,1,0.36,0.888960644202199,0.786463061271097,-0.738588183011529,0.540403843294746,0.978368135587335,4
10,1,97," S3-12.jpg",1," [240 239 10]"," yellow","neutral",92,1,1,1.7005,2,0.9914,1.7012,118,66,88,0.7703,0,"group1",206,3,1,0,0,0,1,4,2,4,0.5,0.530922325465113,0.135632775760727,-0.738588183011529,-0.00863719339566359,0.676603622781318,3
10,1,98," S3-12.jpg",1," [10 144 240]"," blue","incongruent",51,1,1,0.9724,3,1.4399,0.9732,137,30,87,0.7703,0,"group1",224,2,1,0,0,0,1,4,2,4,0.44,-0.0279880365401687,-0.880336106457475,0.603809317498476,0.364573666732088,0.881728168770164,1
10,1,99," S4-20.jpg",2," [240 37 33]"," red","incongruent",65,1,0,1.2022,3,0.4472,1.203,128,33,122,0.7324,0,"group1",250,1,1,0,0,0,1,4,4,4,0.36,0.184153211622925,-0.49471271955989,0.603809317498476,-0.804749357141248,0.239043616921329,2
10,1,100," S4-20.jpg",2," [240 37 33]"," red","incongruent",39,1,0,0.7362,3,0.3434,0.7371,122,46,95,0.7324,0,"group1",217,1,1,0,0,0,1,4,3,4,0.36,-0.306253458037216,-1.38615784184992,0.603809317498476,-1.06885933051876,0.0938832152072834,1
10,1,101," S4-20.jpg",2," [240 37 33]"," red","incongruent",84,1,0,1.5373,3,0.3321,1.5381,78,28,140,0.7324,0,"group1",218,1,0,0,1,0,2,1,4,4,0.36,0.430027630936417,-0.0477702831024001,0.603809317498476,-1.10231915059944,0.075492993656476,2
10,1,102," S4-20.jpg",2," [240 37 33]"," red","incongruent",44,1,0,0.786,3,0.2895,0.7869,80,32,80,0.7324,0,"group1",160,1,1,0,0,0,1,1,1,1,0.36,-0.24079848655293,-1.26717594647779,0.603809317498476,-1.23959998196909,4.05585423642148e-05,1
10,1,103," S3-12.jpg",1," [240 37 33]"," red","congruent",47,1,1,0.7991,3,0.2782,0.7999,94,58,78,0.7703,0,"group1",172,1,1,0,0,0,1,3,1,2,0.64,-0.22426918460172,-1.23712952478153,0.603809317498476,-1.27941499949279,-0.0218426133200323,1
10,1,104," S3-12.jpg",1," [240 239 10]"," yellow","neutral",82,1,1,1.4862,3,0.0323,1.4877,118,84,86,0.7703,0,"group1",204,3,1,0,0,0,1,4,2,4,0.5,0.396222526741232,-0.109220090186362,0.603809317498476,-3.43268804875353,-1.20532681436508,2
10,1,105," S3-12.jpg",1," [240 239 10]"," yellow","neutral",131,1,1,2.3672,1,0.6818,2.368,106,83,108,0.7703,0,"group1",214,3,0,0,1,0,2,4,4,4,0.5,0.861707822103863,0.736923777180536,-2.08098568352153,-0.383018919278334,0.470835544323161,3
10,1,106," S3-12.jpg",1," [10 144 240]"," blue","incongruent",127,1,1,2.3122,2,1.1053,2.3131,95,27,90,0.7703,0,"group1",185,2,0,1,0,0,3,3,3,3,0.44,0.838199452259084,0.694191035299923,-0.738588183011529,0.100116791334773,0.736377102402657,3
10,1,107," S3-12.jpg",1," [10 144 240]"," blue","incongruent",269,2,0,4.9184,2,0.8735,4.9191,116,29,84,0.7703,0,"group1",200,2,0,0,0,1,4,4,2,3,0.44,1.59298327436214,2.06621225406412,-0.738588183011529,-0.135247149408026,0.607016125419067,4
10,1,108," S3-12.jpg",1," [240 37 33]"," red","congruent",107,1,1,1.9547,1,1.44,1.9555,87,57,96,0.7703,0,"group1",183,1,0,0,1,0,2,2,3,2,0.64,0.670236728976839,0.388873918588862,-2.08098568352153,0.364643113587909,0.881766338224198,3
10,1,109," S3-12.jpg",1," [10 144 240]"," blue","incongruent",108,2,0,1.9195,3,1.082,1.9203,76,34,76,0.7703,0,"group1",152,2,0,0,1,0,2,1,1,1,0.44,0.652064735458715,0.355841466164746,0.603809317498476,0.0788111804242898,0.724667090096124,3
10,1,110," S3-12.jpg",1," [240 239 10]"," yellow","neutral",58,2,0,1.0788,3,0.7959,1.0795,79,36,101,0.7703,0,"group1",180,3,1,0,0,0,1,1,3,2,0.5,0.0758493122834378,-0.691583987355013,0.603809317498476,-0.228281729170333,0.555882361711135,2
10,1,112," S3-12.jpg",1," [240 239 10]"," yellow","neutral",63,2,0,1.136,3,0.3737,1.1367,75,30,111,0.7703,0,"group1",186,3,1,0,0,0,1,1,4,3,0.5,0.12751332029896,-0.597670852006941,0.603809317498476,-0.984301942490699,0.140357735866521,2
10,1,114," S3-12.jpg",1," [240 239 10]"," yellow","neutral",84,2,0,1.6053,3,0.4003,1.606,87,58,80,0.7703,0,"group1",167,3,1,0,0,0,1,2,1,1,0.5,0.473310655003232,0.030908175143414,0.603809317498476,-0.915541012983609,0.178150190357489,2
10,1,115," S4-20.jpg",2," [240 239 10]"," yellow","neutral",53,2,1,1.0287,3,0.2372,1.0295,100,41,89,0.7324,0,"group1",189,3,1,0,0,0,1,3,3,3,0.5,0.0282958691548473,-0.778025072983918,0.603809317498476,-1.43885161185857,-0.109472332118499,1
10,1,116," S4-20.jpg",2," [240 239 10]"," yellow","neutral",61,2,1,1.1183,3,0.3654,1.119,85,36,118,0.7324,0,"group1",203,3,1,0,0,0,1,2,4,3,0.5,0.111809675052006,-0.626216422089158,0.603809317498476,-1.00676263503823,0.128012866374164,2
10,1,117," S3-12.jpg",1," [10 144 240]"," blue","incongruent",41,2,0,0.7925,3,0.3908,0.7933,81,35,82,0.7703,0,"group1",163,2,1,0,0,0,1,2,2,1,0.44,-0.232562773230701,-1.25220533754466,0.603809317498476,-0.939559358813509,0.16494920182764,1
10,1,118," S4-20.jpg",2," [240 37 33]"," red","incongruent",50,2,1,0.9195,3,0.3878,0.9203,91,25,131,0.7324,0,"group1",222,1,1,0,0,0,1,3,4,4,0.36,-0.0839252349377613,-0.982016906803565,0.603809317498476,-0.947265536173586,0.160713724511267,1
10,1,119," S3-12.jpg",1," [240 37 33]"," red","congruent",39,2,0,0.7618,3,0.0612,0.7628,100,31,89,0.7703,0,"group1",189,1,1,0,0,0,1,3,3,3,0.64,-0.272071224937633,-1.32402250224143,0.603809317498476,-2.79360808946386,-0.854075014095944,1
10,1,120," S3-12.jpg",1," [240 37 33]"," red","congruent",109,2,0,1.9354,3,0.2467,1.9361,113,79,93,0.7703,0,"group1",206,1,1,0,0,0,1,4,3,4,0.64,0.660314023464705,0.370836750711756,0.603809317498476,-1.39958225544683,-0.0878890670911219,3
10,1,121," S4-20.jpg",2," [240 37 33]"," red","incongruent",136,2,1,2.3799,3,1.8027,2.3807,97,55,115,0.7324,0,"group1",212,1,0,0,1,0,2,3,4,4,0.36,0.86705846999393,0.746650009015836,0.603809317498476,0.589285541025855,1.00523454577386,3
10,1,122," S4-20.jpg",2," [240 239 10]"," yellow","neutral",84,2,1,1.4393,3,0.4015,1.4402,109,27,77,0.7324,0,"group1",186,3,1,0,0,0,1,4,1,3,0.5,0.364156884286488,-0.167507960902287,0.603809317498476,-0.912547745595321,0.179795353131787,2
10,1,123," S3-12.jpg",1," [240 37 33]"," red","congruent",107,1,1,1.8592,2,1.04,1.8601,93,48,81,0.7703,0,"group1",174,1,0,0,1,0,2,3,2,2,0.64,0.620146287675455,0.29782116108371,-0.738588183011529,0.0392207131532813,0.7029073357801,3
10,1,124," S4-20.jpg",2," [10 144 240]"," blue","congruent",59,2,1,1.0183,3,0.198,1.0193,81,27,85,0.7324,0,"group1",166,2,1,0,0,0,1,2,2,1,0.56,0.0181345701954827,-0.796495948185787,0.603809317498476,-1.6194882482876,-0.208754030469331,1
10,1,125," S4-20.jpg",2," [10 144 240]"," blue","congruent",63,1,0,1.0831,3,0.58,1.0839,76,32,98,0.7324,0,"group1",174,2,1,0,0,0,1,1,3,2,0.56,0.0798272998595543,-0.684352932313048,0.603809317498476,-0.544727175441672,0.381957282268305,2
10,1,126," S4-20.jpg",2," [240 239 10]"," yellow","neutral",57,1,0,0.9687,3,0.2542,0.9705,86,31,111,0.7324,0,"group1",197,3,1,0,0,0,1,2,4,3,0.5,-0.0318003125497978,-0.887265936461546,0.603809317498476,-1.36963392022678,-0.0714288315475202,1
10,1,127," S3-12.jpg",1," [240 37 33]"," red","congruent",43,1,1,0.737,3,0.2867,0.7378,92,28,117,0.7703,0,"group1",209,1,1,0,0,0,1,3,4,4,0.64,-0.3051673867928,-1.38418361724575,0.603809317498476,-1.24931890609281,-0.00530116676996151,1
10,1,128," S3-12.jpg",1," [10 144 240]"," blue","incongruent",50,1,1,0.8559,3,0.1926,0.8571,98,85,106,0.7703,0,"group1",204,2,1,0,0,0,1,3,4,4,0.44,-0.155601732094573,-1.11230808701438,0.603809317498476,-1.64713977961811,-0.223951894240298,1
10,1,129," S4-20.jpg",2," [240 37 33]"," red","incongruent",42,1,0,0.717,3,0.0765,0.7177,89,30,84,0.7324,0,"group1",173,1,1,0,0,0,1,3,2,2,0.36,-0.332679438382517,-1.43419412018373,0.603809317498476,-2.57046453814965,-0.731430620419946,1
10,1,131," S4-20.jpg",2," [10 144 240]"," blue","congruent",113,1,0,2.0272,3,0.3078,2.0279,83,69,81,0.7324,0,"group1",164,2,0,0,1,0,2,2,2,1,0.56,0.706655530584738,0.455074818905957,0.603809317498476,-1.17830505757736,0.0337295394390355,3
10,1,132," S4-20.jpg",2," [240 239 10]"," yellow","neutral",35,1,0,0.6031,3,2e-04,0.6039,102,27,100,0.7324,0,"group1",202,3,1,0,0,0,1,3,3,3,0.5,-0.505672258525196,-1.74865478160634,0.603809317498476,-8.51719319141624,-3.99987788560034,1
10,1,133," S3-12.jpg",1," [240 37 33]"," red","congruent",44,1,1,0.7517,3,0.2504,0.7526,102,35,83,0.7703,0,"group1",185,1,1,0,0,0,1,3,2,3,0.64,-0.285417970798714,-1.34828377810162,0.603809317498476,-1.38469563975619,-0.0797070696974605,1
10,1,134," S4-20.jpg",2," [240 37 33]"," red","incongruent",40,1,0,0.6813,3,0.022,0.6822,96,24,88,0.7324,0,"group1",184,1,1,0,0,0,1,3,2,3,0.36,-0.383752541202515,-1.52703312749302,0.603809317498476,-3.81671282562382,-1.41639491666259,1
10,1,135," S4-20.jpg",2," [240 239 10]"," yellow","neutral",43,1,0,0.7444,3,0.0776,0.7453,86,61,89,0.7324,0,"group1",175,3,1,0,0,0,1,2,3,2,0.5,-0.295176754214041,-1.36602297377999,0.603809317498476,-2.55618785179296,-0.723583853029154,1
10,1,136," S4-20.jpg",2," [240 37 33]"," red","incongruent",40,1,0,0.6966,3,2e-04,0.6975,97,47,90,0.7324,0,"group1",187,1,1,0,0,0,1,3,3,3,0.36,-0.361543921050236,-1.48666302787496,0.603809317498476,-8.51719319141624,-3.99987788560034,1
10,1,139," S4-20.jpg",2," [10 144 240]"," blue","congruent",115,1,0,2.0214,3,0.2865,2.0222,77,32,83,0.7324,0,"group1",160,2,0,1,0,0,3,1,2,1,0.56,0.703790340658425,0.449866570849266,0.603809317498476,-1.25001674282734,-0.00568471253091771,3
10,1,140," S3-12.jpg",1," [240 37 33]"," red","congruent",48,1,1,0.8236,3,0.4861,0.8246,88,43,77,0.7703,0,"group1",165,1,1,0,0,0,1,2,1,1,0.64,-0.194070303828503,-1.18223499208164,0.603809317498476,-0.721340914930727,0.284886652770321,1
10,1,142," S3-12.jpg",1," [240 37 33]"," red","congruent",103,2,0,1.7929,2,1.0494,1.7938,101,42,105,0.7703,0,"group1",206,1,0,0,1,0,2,3,4,4,0.64,0.583834420619245,0.231814642879266,-0.738588183011529,0.0482185722704744,0.707852748584149,3
10,1,143," S3-12.jpg",1," [240 37 33]"," red","congruent",82,2,0,1.4568,2,0.6784,1.4584,133,26,92,0.7703,0,"group1",225,1,1,0,0,0,1,4,3,4,0.64,0.376242249431261,-0.145539581441077,-0.738588183011529,-0.388018194504444,0.468087837408422,2
10,1,144," S4-20.jpg",2," [240 37 33]"," red","incongruent",89,1,0,1.5688,2,0.6375,1.5697,77,23,116,0.7324,0,"group1",193,1,0,0,1,0,2,1,4,3,0.36,0.450310995899999,-0.0108998490747693,-0.738588183011529,-0.450201001949556,0.43391085729288,2
10,1,145," S3-12.jpg",1," [10 144 240]"," blue","incongruent",145,2,0,2.5216,2,0.6005,2.5225,89,25,79,0.7703,0,"group1",168,2,0,1,0,0,3,3,1,1,0.44,0.924893620681423,0.85178084464049,-0.738588183011529,-0.509992637462099,0.401048115613169,4
10,1,146," S3-12.jpg",1," [240 37 33]"," red","congruent",85,2,0,1.5464,2,0.491,1.5473,76,32,106,0.7703,0,"group1",182,1,0,0,1,0,2,1,4,2,0.64,0.435929648911984,-0.0370417888516311,-0.738588183011529,-0.711311151187616,0.290399222081613,2
10,1,147," S4-20.jpg",2," [10 144 240]"," blue","congruent",116,2,1,2.0358,3,0.2146,2.0368,87,34,137,0.7324,0,"group1",224,2,0,0,1,0,2,2,4,4,0.56,0.710888862036102,0.462770029650076,0.603809317498476,-1.53897944878554,-0.164504699299507,3
10,1,148," S4-20.jpg",2," [240 37 33]"," red","incongruent",50,2,1,0.8518,3,0.571,0.8526,104,72,87,0.7324,0,"group1",191,1,1,0,0,0,1,4,2,3,0.36,-0.160403521493024,-1.12103662192701,0.603809317498476,-0.560366069326127,0.373361816941496,1
10,1,149," S3-12.jpg",1," [240 37 33]"," red","congruent",87,2,0,1.5351,3,0.4644,1.5367,75,29,105,0.7703,0,"group1",180,1,0,0,1,0,2,1,4,2,0.64,0.428595525497019,-0.0503735172905509,0.603809317498476,-0.767009029158401,0.259786495733327,2
10,1,150," S4-20.jpg",2," [240 37 33]"," red","incongruent",46,2,1,0.7812,3,0.2462,0.782,76,42,141,0.7324,0,"group1",217,1,1,0,0,0,1,1,4,4,0.36,-0.246924079979613,-1.27831084883369,0.603809317498476,-1.40161106523178,-0.0890041436617629,1
10,1,151," S4-20.jpg",2," [10 144 240]"," blue","congruent",48,2,1,0.8485,3,0.3996,0.8492,111,39,100,0.7324,0,"group1",211,2,1,0,0,0,1,4,3,4,0.56,-0.164285194307856,-1.1280925991622,0.603809317498476,-0.917291232207739,0.177188233024287,1
10,1,152," S3-12.jpg",1," [10 144 240]"," blue","incongruent",74,2,0,1.339,3,0.4837,1.3399,93,28,97,0.7703,0,"group1",190,2,1,0,0,0,1,3,3,3,0.44,0.291923066709035,-0.298812219852176,0.603809317498476,-0.7262903991532,0.282166312039438,2
10,1,153," S4-20.jpg",2," [240 37 33]"," red","incongruent",44,2,1,0.7448,3,0.4034,0.7455,78,41,81,0.7324,0,"group1",159,1,1,0,0,0,1,1,2,1,0.36,-0.29463955301928,-1.36504646710831,0.603809317498476,-0.907826653462026,0.182390164762086,1
10,1,154," S4-20.jpg",2," [240 239 10]"," yellow","neutral",42,2,1,0.7094,3,0.3272,0.7103,120,25,78,0.7324,0,"group1",198,3,1,0,0,0,1,4,1,3,0.5,-0.343335736642616,-1.45356478884168,0.603809317498476,-1.11718367425355,0.0673231385111947,1
10,1,155," S4-20.jpg",2," [10 144 240]"," blue","congruent",31,2,1,0.536,3,0.173,0.5368,97,53,120,0.7324,0,"group1",217,2,1,0,0,0,1,3,4,4,0.56,-0.623621117911335,-1.96305834070213,0.603809317498476,-1.75446368448436,-0.282939371860599,1
10,1,156," S3-12.jpg",1," [240 37 33]"," red","congruent",48,2,0,0.821,3,0.3006,0.8218,117,37,127,0.7703,0,"group1",244,1,1,0,0,0,1,4,4,4,0.64,-0.197232169529709,-1.1879825276089,0.603809317498476,-1.20197480166326,0.0207201497668501,1
10,1,158," S4-20.jpg",2," [240 37 33]"," red","incongruent",164,2,1,2.8683,3,0.2404,2.8698,94,38,92,0.7324,0,"group1",186,1,0,1,0,0,3,3,3,3,0.36,1.05371951977737,1.08595632894477,0.603809317498476,-1.42545107632108,-0.102107115663671,4
10,1,159," S4-20.jpg",2," [240 239 10]"," yellow","neutral",85,2,1,1.4883,3,0.0042,1.4891,76,26,97,0.7324,0,"group1",173,3,0,0,1,0,2,1,3,2,0.5,0.397634528992976,-0.106653398911849,0.603809317498476,-5.47267075369281,-2.32654425705292,2
10,1,160," S3-12.jpg",1," [10 144 240]"," blue","incongruent",197,2,0,3.423,3,0.1962,3.424,127,28,78,0.7703,0,"group1",205,2,0,1,0,0,3,4,1,4,0.44,1.23051735954805,1.40733362995947,0.603809317498476,-1.62862073185087,-0.213773435703213,4
10,1,161," S4-20.jpg",2," [240 239 10]"," yellow","neutral",149,2,1,2.6178,3,0.3007,2.6187,82,25,93,0.7324,0,"group1",175,3,0,1,0,0,3,2,3,2,0.5,0.962334270375482,0.919839226815979,0.603809317498476,-1.20164218898765,0.0209029606959081,4
10,1,163," S3-12.jpg",1," [10 144 240]"," blue","incongruent",78,1,1,1.3849,2,0.5259,1.3858,87,24,94,0.7703,0,"group1",181,2,1,0,0,0,1,2,3,2,0.44,0.325627934866535,-0.237544618542321,-0.738588183011529,-0.642644198386839,0.328140024996286,2
10,1,165," S4-20.jpg",2," [240 239 10]"," yellow","neutral",130,2,1,2.2936,2,0.2108,2.2947,82,67,85,0.7324,0,"group1",167,3,0,0,1,0,2,2,2,1,0.5,0.830122635587023,0.679509263473839,-0.738588183011529,-1.55684546231493,-0.174324236471047,3
10,1,166," S4-20.jpg",2," [10 144 240]"," blue","congruent",125,2,1,2.2199,2,3e-04,2.2206,108,36,96,0.7324,0,"group1",204,2,0,0,1,0,2,4,3,4,0.56,0.797462149824585,0.620140106148295,-0.738588183011529,-8.11172808330807,-3.77702572586807,3
10,1,167," S3-12.jpg",1," [240 37 33]"," red","congruent",84,1,1,1.4437,2,0.8561,1.4446,80,62,76,0.7703,0,"group1",156,1,0,0,1,0,2,1,1,1,0.64,0.367209262653632,-0.161959447851558,-0.738588183011529,-0.155368087233697,0.595957234381041,2
10,1,168," S4-20.jpg",2," [10 144 240]"," blue","congruent",129,1,0,2.2379,1,0.4697,2.2388,81,25,123,0.7324,0,"group1",204,2,0,1,0,0,3,2,4,4,0.56,0.805537926138972,0.634819986846401,-2.08098568352153,-0.755661085949188,0.266023564231013,3
10,1,169," S4-20.jpg",2," [10 144 240]"," blue","congruent",71,2,1,1.2753,2,0.334,1.276,100,31,85,0.7324,0,"group1",185,2,1,0,0,0,1,3,2,3,0.56,0.243181445050717,-0.387413137351781,-0.738588183011529,-1.09661428600544,0.0786285073426838,2
10,1,170," S4-20.jpg",2," [240 239 10]"," yellow","neutral",109,1,0,1.9297,2,0.1183,1.9305,84,27,139,0.7324,0,"group1",223,3,0,0,1,0,2,2,4,4,0.5,0.657364550420173,0.365475295573522,-0.738588183011529,-2.1345315079978,-0.491832649286867,3
10,1,171," S3-12.jpg",1," [240 37 33]"," red","congruent",144,2,0,2.4977,3,0.487,2.4986,97,35,79,0.7703,0,"group1",176,1,0,1,0,0,3,3,1,2,0.64,0.915370308414413,0.834469680674564,0.603809317498476,-0.719491155899547,0.285903319277104,4
10,1,172," S4-20.jpg",2," [240 239 10]"," yellow","neutral",137,2,1,2.3905,3,0.5809,2.3914,80,29,78,0.7324,0,"group1",158,3,0,1,0,0,3,1,1,1,0.5,0.871502549084021,0.754728309889432,0.603809317498476,-0.54317665398365,0.382809481504988,3
10,1,174," S4-20.jpg",2," [240 37 33]"," red","incongruent",150,2,1,2.6261,3,1.2095,2.6276,84,51,92,0.7324,0,"group1",176,1,0,1,0,0,3,2,3,2,0.36,0.965499855886702,0.925593524091595,0.603809317498476,0.190207051067945,0.785892605835378,4
10,1,175," S3-12.jpg",1," [10 144 240]"," blue","incongruent",243,1,1,4.217,1,0.4895,4.2178,78,44,89,0.7703,0,"group1",167,2,0,0,0,1,4,1,3,1,0.44,1.43912397476442,1.7865318772854,-2.08098568352153,-0.714370817011572,0.288717565329176,4
10,1,176," S4-20.jpg",2," [10 144 240]"," blue","congruent",157,2,1,2.753,3,0.8391,2.7537,81,26,80,0.7324,0,"group1",161,2,0,1,0,0,3,2,1,1,0.56,1.01269122616047,1.01137644558793,0.603809317498476,-0.175425390106113,0.58493331845304,4
10,1,177," S4-20.jpg",2," [240 239 10]"," yellow","neutral",107,2,1,1.889,3,1.6649,1.8898,83,38,86,0.7324,0,"group1",169,3,0,0,1,0,2,2,2,1,0.5,0.636047588519372,0.326726023012281,0.603809317498476,0.50976506156867,0.961528416107946,3
10,1,178," S4-20.jpg",2," [240 239 10]"," yellow","neutral",132,2,1,2.3308,3,0.2966,2.3315,83,30,95,0.7324,0,"group1",178,3,0,1,0,0,3,2,3,2,0.5,0.846211556286782,0.708755174608471,0.603809317498476,-1.21537084927831,0.0133573999686798,3
10,1,179," S4-20.jpg",2," [240 37 33]"," red","incongruent",114,2,1,2.0329,3,0.3081,2.0339,112,44,89,0.7324,0,"group1",201,1,0,0,1,0,2,4,3,3,0.36,0.709463345044882,0.46017877172643,0.603809317498476,-1.17733087337951,0.034264971583812,3
10,1,180," S3-12.jpg",1," [10 144 240]"," blue","incongruent",76,1,1,1.3118,4,0.5435,1.3126,82,24,104,0.7703,0,"group1",186,2,1,0,0,0,1,2,4,3,0.44,0.271400239877498,-0.336117939791213,1.94620681800848,-0.609725572420873,0.346232794867811,2
10,1,181," S4-20.jpg",2," [10 144 240]"," blue","congruent",59,1,0,1.0366,3,0.4147,1.0374,83,60,77,0.7324,0,"group1",160,2,1,0,0,0,1,2,1,1,0.56,0.0359461267734691,-0.76411868618231,0.603809317498476,-0.880199911729801,0.197574403647937,1
10,1,182," S3-12.jpg",1," [240 37 33]"," red","congruent",84,1,1,1.4979,4,0.315,1.4988,143,26,91,0.7703,0,"group1",234,1,1,0,0,0,1,4,3,4,0.64,0.404064127192536,-0.0949658866737812,1.94620681800848,-1.1551826401565,0.046438106853161,2
10,1,183," S3-12.jpg",1," [10 144 240]"," blue","incongruent",112,1,1,1.9636,1,0.5208,1.965,87,49,78,0.7703,0,"group1",165,2,0,0,1,0,2,2,1,1,0.44,0.67477952320176,0.397131660589353,-2.08098568352153,-0.652389188087777,0.322783973493961,3
10,1,184," S3-12.jpg",1," [10 144 240]"," blue","incongruent",84,1,1,1.4718,3,0.2101,1.4727,108,41,78,0.7703,0,"group1",186,2,1,0,0,0,1,4,1,3,0.44,0.386486141510362,-0.126918571181351,0.603809317498476,-1.56017167113118,-0.176152390863618,2
10,1,187," S4-20.jpg",2," [10 144 240]"," blue","congruent",59,1,0,1.022,3,0.0522,1.0228,106,26,87,0.7324,0,"group1",193,2,1,0,0,0,1,4,2,3,0.56,0.0217614917815127,-0.789903049359522,0.603809317498476,-2.95267278409354,-0.94150031907662,1
10,1,188," S4-20.jpg",2," [240 37 33]"," red","incongruent",59,1,0,1.0013,3,0.2739,1.0022,92,47,118,0.7324,0,"group1",210,1,1,0,0,0,1,3,4,4,0.36,0.00129915573162013,-0.827098811144282,0.603809317498476,-1.2949922027131,-0.0304041721590445,1
10,1,189," S4-20.jpg",2," [240 37 33]"," red","incongruent",65,1,0,1.1405,3,0.296,1.1413,88,27,113,0.7324,0,"group1",201,1,1,0,0,0,1,2,4,3,0.36,0.131466762742306,-0.59048441430042,0.603809317498476,-1.21739582465808,0.0122444308678557,2
10,1,191," S3-12.jpg",1," [10 144 240]"," blue","incongruent",48,1,1,0.8222,3,0.0493,0.8232,82,24,104,0.7703,0,"group1",186,2,1,0,0,0,1,2,4,3,0.44,-0.195771604518359,-1.18532756054645,0.603809317498476,-3.00983119793349,-0.972915786687473,1
10,1,192," S4-20.jpg",2," [10 144 240]"," blue","congruent",55,1,0,0.9502,3,0.2331,0.9511,129,82,79,0.7324,0,"group1",208,2,1,0,0,0,1,4,1,4,0.56,-0.0510827902293161,-0.922316990487759,0.603809317498476,-1.45628773294043,-0.119055591350287,1
10,1,193," S4-20.jpg",2," [240 37 33]"," red","incongruent",47,1,0,0.8006,3,0.3433,0.8016,80,40,82,0.7324,0,"group1",162,1,1,0,0,0,1,1,2,1,0.36,-0.222393832423664,-1.23372057124331,0.603809317498476,-1.06915057851849,0.0937231391749459,1
10,1,194," S4-20.jpg",2," [240 37 33]"," red","incongruent",38,1,0,0.6504,3,0.4477,0.6517,90,35,79,0.7324,0,"group1",169,1,1,0,0,0,1,3,1,1,0.36,-0.430167720748536,-1.61140511500125,0.603809317498476,-0.803631913735217,0.239657787342982,1
10,1,195," S4-20.jpg",2," [10 144 240]"," blue","congruent",44,1,0,0.7479,3,0.312,0.7489,114,40,75,0.7324,0,"group1",189,2,1,0,0,0,1,4,1,3,0.56,-0.290485999784515,-1.35749627458367,0.603809317498476,-1.16475209117265,0.0411785351076375,1
10,1,196," S3-12.jpg",1," [10 144 240]"," blue","incongruent",80,1,1,1.397,3,0.1281,1.3978,136,28,77,0.7703,0,"group1",213,2,1,0,0,0,1,4,1,4,0.44,0.334327080274825,-0.221731597998196,0.603809317498476,-2.05494407007945,-0.448089717841013,2
10,1,197," S3-12.jpg",1," [10 144 240]"," blue","incongruent",58,1,1,0.9864,3,0.3076,0.9888,95,31,76,0.7703,0,"group1",171,2,1,0,0,0,1,3,1,2,0.44,-0.0136933271320025,-0.854351653625106,0.603809317498476,-1.17895504135065,0.0333722946730321,1
10,1,198," S4-20.jpg",2," [240 37 33]"," red","incongruent",62,1,0,1.0657,3,0.5086,1.0665,85,34,82,0.7324,0,"group1",167,1,1,0,0,0,1,2,2,1,0.36,0.0636318602447735,-0.713792470029662,0.603809317498476,-0.676093425994118,0.309755625291861,2
10,1,199," S3-12.jpg",1," [240 37 33]"," red","congruent",79,1,1,1.3863,3,0.6645,1.3871,85,42,83,0.7703,0,"group1",168,1,1,0,0,0,1,2,2,1,0.64,0.326638327562193,-0.235707959916192,0.603809317498476,-0.408720400828837,0.456709468965968,2
10,1,200," S4-20.jpg",2," [240 239 10]"," yellow","neutral",44,1,0,0.7514,3,0.1592,0.7523,86,60,82,0.7324,0,"group1",168,3,1,0,0,0,1,2,2,1,0.5,-0.285817145842269,-1.34900938537316,0.603809317498476,-1.83759400557185,-0.328629546485053,1
10,1,201," S4-20.jpg",2," [240 239 10]"," yellow","neutral",48,1,0,0.8195,3,0.2799,0.8206,79,45,81,0.7324,0,"group1",160,3,1,0,0,0,1,1,2,1,0.5,-0.199060880798253,-1.1913066988351,0.603809317498476,-1.27332288246073,-0.0184942575409814,1
10,1,202," S4-20.jpg",2," [240 37 33]"," red","incongruent",72,1,0,1.2959,3,0.2797,1.2967,77,36,113,0.7324,0,"group1",190,1,1,0,0,0,1,1,4,3,0.36,0.259205434459232,-0.358285256183797,0.603809317498476,-1.27403767877422,-0.0188871246435885,2
10,1,203," S4-20.jpg",2," [240 37 33]"," red","incongruent",70,1,0,1.2506,3,0.4275,1.2516,79,51,78,0.7324,0,"group1",157,1,1,0,0,0,1,1,1,1,0.36,0.22362343615106,-0.422965042972043,0.603809317498476,-0.849800990605322,0.214282290690868,2
10,1,204," S4-20.jpg",2," [10 144 240]"," blue","congruent",144,1,0,2.5195,3,0.0852,2.5202,80,25,85,0.7324,0,"group1",165,2,0,1,0,0,3,1,2,1,0.56,0.924060469138516,0.850266369155139,0.603809317498476,-2.46275384514687,-0.672230555896699,4
10,1,205," S4-20.jpg",2," [240 239 10]"," yellow","neutral",140,2,1,2.4584,3,1.1355,2.4593,89,62,83,0.7324,0,"group1",172,3,0,0,1,0,2,3,2,2,0.5,0.899510731834138,0.805640663740782,0.603809317498476,0.127073082563476,0.751192847576681,4
10,1,206," S3-12.jpg",1," [10 144 240]"," blue","incongruent",110,2,0,1.9041,3,0.2715,1.9049,90,90,102,0.7703,0,"group1",192,2,0,0,1,0,2,3,3,3,0.44,0.644009455998397,0.341198843974146,0.603809317498476,-1.30379313960815,-0.0352413523639668,3
10,1,208," S3-12.jpg",1," [240 37 33]"," red","congruent",51,2,0,0.8625,2,0.175,0.8633,81,52,129,0.7703,0,"group1",210,1,1,0,0,0,1,2,4,4,0.64,-0.147920130076622,-1.0983447233941,-0.738588183011529,-1.74296930505862,-0.27662181893537,1
10,1,209," S3-12.jpg",1," [10 144 240]"," blue","incongruent",62,2,0,1.0685,2,0.2928,1.0693,80,53,95,0.7703,0,"group1",175,2,1,0,0,0,1,1,3,2,0.44,0.0662557957770653,-0.709022766279332,-0.738588183011529,-1.22826549689498,0.0062702301656596,2
10,1,210," S3-12.jpg",1," [10 144 240]"," blue","incongruent",68,2,0,1.1973,2,0.1458,1.1988,101,38,128,0.7703,0,"group1",229,2,1,0,0,0,1,3,4,4,0.44,0.180069021740661,-0.502136825662634,-0.738588183011529,-1.92551945940758,-0.376955227020562,2
10,1,211," S3-12.jpg",1," [10 144 240]"," blue","incongruent",65,2,0,1.1539,2,0.3978,1.1549,126,48,77,0.7703,0,"group1",203,2,1,0,0,0,1,4,1,3,0.44,0.143147509218485,-0.56925153735339,-0.738588183011529,-0.921805912562265,0.174706869653215,2
10,1,212," S3-12.jpg",1," [10 144 240]"," blue","incongruent",58,2,0,0.984,2,0.7988,0.9849,105,33,97,0.7703,0,"group1",202,2,1,0,0,0,1,4,3,3,0.44,-0.0161293819298836,-0.858779833952888,-0.738588183011529,-0.224644677440477,0.557881361913244,1
10,1,213," S4-20.jpg",2," [10 144 240]"," blue","congruent",37,2,1,0.6319,2,0.4378,0.6329,81,75,84,0.7324,0,"group1",165,2,1,0,0,0,1,2,2,1,0.56,-0.459024125202727,-1.6638593383815,-0.738588183011529,-0.825993093893374,0.227367611954874,1
10,1,214," S3-12.jpg",1," [240 37 33]"," red","congruent",39,2,0,0.6699,2,0.2734,0.6707,120,52,112,0.7703,0,"group1",232,1,1,0,0,0,1,4,4,4,0.64,-0.400626831467915,-1.55770665760554,-0.738588183011529,-1.29681935469229,-0.0314084133541005,1
10,1,215," S3-12.jpg",1," [10 144 240]"," blue","incongruent",46,2,0,0.7902,2,0.224,0.7914,77,30,115,0.7703,0,"group1",192,2,1,0,0,0,1,1,4,3,0.44,-0.235469201004847,-1.25748854640547,-0.738588183011529,-1.4961092271271,-0.140942322923003,1
10,1,217," S4-20.jpg",2," [240 37 33]"," red","incongruent",89,2,1,1.611,2,0.2284,1.6119,113,67,79,0.7324,0,"group1",192,1,1,0,0,0,1,4,1,3,0.36,0.476855104194837,0.037351158362324,-0.738588183011529,-1.47665680120028,-0.130250860098867,2
10,1,218," S3-12.jpg",1," [10 144 240]"," blue","incongruent",72,2,0,1.2614,2,0.2731,1.2623,80,86,77,0.7703,0,"group1",157,2,1,0,0,0,1,1,1,1,0.44,0.232222215247414,-0.407334465010275,-0.738588183011529,-1.29791725050248,-0.0320118400055413,2
10,1,219," S4-20.jpg",2," [10 144 240]"," blue","congruent",45,2,1,0.7722,2,0.3125,0.7731,132,36,83,0.7324,0,"group1",215,2,1,0,0,0,1,4,2,4,0.56,-0.258511695152001,-1.29937443475832,-0.738588183011529,-1.16315080980568,0.0420586330589364,1
10,1,220," S3-12.jpg",1," [240 37 33]"," red","congruent",55,2,0,0.9506,2,0.3575,0.9514,84,29,98,0.7703,0,"group1",182,1,1,0,0,0,1,2,3,2,0.64,-0.050661914802228,-0.92155193697242,-0.738588183011529,-1.02861991684807,0.115999644126934,1
10,1,221," S4-20.jpg",2," [240 239 10]"," yellow","neutral",102,1,0,1.773,1,0.4487,1.7744,80,43,81,0.7324,0,"group1",161,3,0,0,1,0,2,1,2,1,0.5,0.572673027092071,0.211525828649529,-2.08098568352153,-0.801400766000199,0.240884073110826,3
10,1,222," S3-12.jpg",1," [240 37 33]"," red","congruent",78,2,0,1.3825,2,0.3204,1.3834,109,64,109,0.7703,0,"group1",218,1,1,0,0,0,1,4,4,4,0.64,0.323893454414353,-0.240697500088318,-0.738588183011529,-1.13818506378793,0.0557803326777803,2
10,1,223," S4-20.jpg",2," [10 144 240]"," blue","congruent",41,2,1,0.7059,2,0.1762,0.7067,88,32,81,0.7324,0,"group1",169,2,1,0,0,0,1,2,2,1,0.56,-0.348281694580711,-1.46255538858621,-0.738588183011529,-1.73613556548006,-0.272865851791275,1
10,1,224," S4-20.jpg",2," [240 37 33]"," red","incongruent",83,2,1,1.4547,2,1.4873,1.4562,112,48,82,0.7324,0,"group1",194,1,1,0,0,0,1,4,2,3,0.36,0.374799693797279,-0.148161811649399,-0.738588183011529,0.396962395616415,0.89952969604962,2
10,1,225," S3-12.jpg",1," [10 144 240]"," blue","incongruent",132,2,0,2.3035,2,0.4412,2.3045,123,31,79,0.7703,0,"group1",202,2,0,0,1,0,2,4,1,3,0.44,0.834429705393835,0.687338513376386,-0.738588183011529,-0.81825699160279,0.231619536643068,3
10,1,226," S4-20.jpg",2," [240 37 33]"," red","incongruent",84,2,1,1.471,2,2e-04,1.4719,81,29,75,0.7324,0,"group1",156,1,0,0,1,0,2,2,1,1,0.36,0.3859424416193,-0.127906890969522,-0.738588183011529,-8.51719319141624,-3.99987788560034,2
10,1,227," S4-20.jpg",2," [10 144 240]"," blue","congruent",45,2,1,0.7612,2,0.3176,0.762,91,26,126,0.7324,0,"group1",217,2,1,0,0,0,1,3,4,4,0.56,-0.272859143560143,-1.32545475481108,-0.738588183011529,-1.14696254960916,0.0509560416767475,1
10,1,228," S4-20.jpg",2," [10 144 240]"," blue","congruent",51,2,1,0.8763,2,0.2847,0.8773,86,28,88,0.7324,0,"group1",174,2,1,0,0,0,1,2,2,2,0.56,-0.132046780920332,-1.0694906711244,-0.738588183011529,-1.25631928469815,-0.00914872223144323,1
10,1,229," S4-20.jpg",2," [240 37 33]"," red","incongruent",47,2,1,0.8461,2,0.5014,0.847,96,33,142,0.7324,0,"group1",238,1,1,0,0,0,1,3,4,4,0.36,-0.167117723051682,-1.13324147679508,-0.738588183011529,-0.690351093257944,0.301919311194915,1
10,1,230," S4-20.jpg",2," [10 144 240]"," blue","congruent",81,1,0,1.3972,1,0.1795,1.3982,83,50,90,0.7324,0,"group1",173,2,1,0,0,0,1,2,3,2,0.56,0.33447023395054,-0.22147137795257,-2.08098568352153,-1.7175800710538,-0.262667361403077,2
10,1,231," S4-20.jpg",2," [10 144 240]"," blue","congruent",120,2,1,2.1184,2,0.3286,2.1194,85,30,75,0.7324,0,"group1",160,2,0,1,0,0,3,2,1,1,0.56,0.750661086760552,0.535066672266711,-0.738588183011529,-1.11291407337897,0.069669801040391,3
10,1,232," S4-20.jpg",2," [10 144 240]"," blue","congruent",51,2,1,0.8855,2,0.3123,0.8864,90,32,136,0.7324,0,"group1",226,2,1,0,0,0,1,3,4,4,0.56,-0.121602821759249,-1.05050598550013,-0.738588183011529,-1.1637910146931,0.0417067629744818,1
10,1,233," S4-20.jpg",2," [10 144 240]"," blue","congruent",59,2,1,1.0164,2,2e-04,1.0171,83,55,91,0.7324,0,"group1",174,2,1,0,0,0,1,2,3,2,0.56,0.0162669724638719,-0.79989080594618,-0.738588183011529,-8.51719319141624,-3.99987788560034,1
10,1,234," S4-20.jpg",2," [240 37 33]"," red","incongruent",65,2,1,1.1774,2,2e-04,1.1782,77,49,76,0.7324,0,"group1",153,1,1,0,0,0,1,1,1,1,0.36,0.163308617612024,-0.532603337299675,-0.738588183011529,-8.51719319141624,-3.99987788560034,2
10,1,235," S4-20.jpg",2," [10 144 240]"," blue","congruent",56,2,1,0.9607,2,0.0374,0.9617,125,26,76,0.7324,0,"group1",201,2,1,0,0,0,1,4,1,3,0.56,-0.0400930935664442,-0.902340281173521,-0.738588183011529,-3.28608457456165,-1.12475045848491,1
10,1,236," S4-20.jpg",2," [240 37 33]"," red","incongruent",126,1,0,2.2098,1,0.4757,2.2105,78,41,77,0.7324,0,"group1",155,1,0,1,0,0,3,1,1,1,0.36,0.792902013696938,0.611850840607134,-2.08098568352153,-0.742967875543901,0.273000019901767,3
10,1,237," S4-20.jpg",2," [240 37 33]"," red","incongruent",91,2,1,1.5991,2,0.5219,1.6005,82,40,143,0.7324,0,"group1",225,1,0,0,1,0,2,2,4,4,0.36,0.469440970983259,0.0238739907453947,-0.738588183011529,-0.65027928033277,0.323943623216309,2
10,1,238," S4-20.jpg",2," [240 37 33]"," red","incongruent",54,2,1,0.927,2,0.457,0.9279,107,50,80,0.7324,0,"group1",187,1,1,0,0,0,1,4,1,3,0.36,-0.0758017134162818,-0.967250236437602,-0.738588183011529,-0.783071888087932,0.250958010291946,1
10,1,239," S4-20.jpg",2," [240 37 33]"," red","incongruent",126,2,1,2.2077,2,0.3186,2.2087,139,78,91,0.7324,0,"group1",230,1,1,0,0,0,1,4,3,4,0.36,0.791951249618526,0.610122572921183,-0.738588183011529,-1.14381888150619,0.0526838678502413,3
10,1,241," S4-20.jpg",2," [10 144 240]"," blue","congruent",90,2,1,1.5842,3,0.1771,1.5851,92,89,135,0.7324,0,"group1",227,2,1,0,0,0,1,3,4,4,0.56,0.460079548048042,0.00685710388478864,0.603809317498476,-1.73104073419335,-0.270065625253874,2
10,1,242," S4-20.jpg",2," [240 37 33]"," red","incongruent",64,2,1,1.12,3,0.3006,1.1207,101,80,96,0.7324,0,"group1",197,1,1,0,0,0,1,3,3,3,0.36,0.113328685307003,-0.623455215184153,0.603809317498476,-1.20197480166326,0.0207201497668501,2
10,1,243," S4-20.jpg",2," [240 37 33]"," red","incongruent",84,1,0,1.5305,2,0.2757,1.5315,93,49,114,0.7324,0,"group1",207,1,1,0,0,0,1,3,4,4,0.36,0.42559447940333,-0.0558287202221101,-0.738588183011529,-1.28844196095239,-0.026804021384159,2
10,1,244," S4-20.jpg",2," [10 144 240]"," blue","congruent",114,1,0,1.9875,1,0.7947,1.9885,89,26,82,0.7324,0,"group1",171,2,0,0,1,0,2,3,2,2,0.56,0.68687756754635,0.419123087883168,-2.08098568352153,-0.229790594036003,0.555053057814611,3
10,1,245," S4-20.jpg",2," [10 144 240]"," blue","congruent",146,2,1,2.5504,2,0.8133,2.5511,86,35,86,0.7324,0,"group1",172,2,0,1,0,0,3,2,2,2,0.56,0.936250209613759,0.872424478660802,-0.738588183011529,-0.206655233809407,0.567768738867259,4
10,1,246," S4-20.jpg",2," [240 239 10]"," yellow","neutral",162,2,1,2.8255,2,0.1966,2.8262,90,37,79,0.7324,0,"group1",169,3,0,1,0,0,3,3,1,1,0.5,1.03868534008776,1.05862769134442,-0.738588183011529,-1.62658407126907,-0.212654044169342,4
10,1,247," S4-20.jpg",2," [10 144 240]"," blue","congruent",297,2,1,5.1499,2,2e-04,5.1508,98,25,96,0.7324,0,"group1",194,2,0,0,0,1,4,3,3,3,0.56,1.6389772970114,2.14981867641068,-0.738588183011529,-8.51719319141624,-3.99987788560034,4
10,1,248," S4-20.jpg",2," [240 239 10]"," yellow","neutral",126,2,1,2.2096,2,0.3189,2.2105,87,27,91,0.7324,0,"group1",178,3,0,1,0,0,3,2,3,2,0.5,0.792811503672891,0.611686314460883,-0.738588183011529,-1.14287770496613,0.0532011582913872,3
10,1,249," S4-20.jpg",2," [10 144 240]"," blue","congruent",127,2,1,2.2238,2,0.2419,2.2247,98,39,78,0.7324,0,"group1",176,2,0,0,1,0,2,3,1,2,0.56,0.799217444287012,0.623330822717868,-0.738588183011529,-1.41923086136616,-0.0986883545693496,3
10,1,250," S4-20.jpg",2," [240 239 10]"," yellow","neutral",115,2,1,1.9887,2,0.265,1.9897,85,64,105,0.7324,0,"group1",190,3,0,0,1,0,2,2,4,3,0.5,0.687481158933319,0.420220276463703,-0.738588183011529,-1.32802545299591,-0.0485599419683097,3
10,1,251," S4-20.jpg",2," [10 144 240]"," blue","congruent",123,1,0,2.1818,3,0.1762,2.1833,138,40,80,0.7324,0,"group1",218,2,1,0,0,0,1,4,1,4,0.56,0.780150224181519,0.588671056833258,0.603809317498476,-1.73613556548006,-0.272865851791275,3
10,1,252," S4-20.jpg",2," [240 37 33]"," red","incongruent",128,2,1,2.2379,3,0.3448,2.2388,79,27,82,0.7324,0,"group1",161,1,0,1,0,0,3,1,2,1,0.36,0.805537926138972,0.634819986846401,0.603809317498476,-1.0647907401926,0.0961193981071676,3
10,1,253," S4-20.jpg",2," [240 37 33]"," red","incongruent",116,2,1,2.0404,3,2e-04,2.0413,93,88,86,0.7324,0,"group1",179,1,0,0,1,0,2,3,2,2,0.36,0.713145867066634,0.466872739196922,0.603809317498476,-8.51719319141624,-3.99987788560034,3
10,1,254," S4-20.jpg",2," [240 37 33]"," red","incongruent",103,2,1,1.7941,3,0.4471,1.7951,114,33,124,0.7324,0,"group1",238,1,1,0,0,0,1,4,4,4,0.36,0.584503503443202,0.233030879640968,0.603809317498476,-0.804972995742202,0.238920700437948,3
10,1,255," S4-20.jpg",2," [240 37 33]"," red","incongruent",102,1,0,1.7992,1,0.3725,1.8,119,37,86,0.7324,0,"group1",205,1,1,0,0,0,1,4,2,4,0.36,0.587342121662969,0.238190826523029,-2.08098568352153,-0.987518241162523,0.138589990403282,3
10,1,257," S4-20.jpg",2," [10 144 240]"," blue","congruent",147,2,1,2.5644,2,0.4513,2.5654,108,24,114,0.7324,0,"group1",222,2,0,1,0,0,3,4,4,4,0.56,0.941724533130965,0.882375523985355,-0.738588183011529,-0.795622972149182,0.244059670252082,4
10,1,258," S4-20.jpg",2," [240 37 33]"," red","incongruent",146,2,1,2.5784,1,1.0433,2.5795,116,28,80,0.7324,0,"group1",196,1,0,1,0,0,3,4,1,3,0.36,0.947169051519091,0.892272390526091,-2.08098568352153,0.0423887664917865,0.704648564592431,4
10,1,259," S4-20.jpg",2," [240 37 33]"," red","incongruent",118,2,1,2.0677,3,0.3367,2.0685,105,34,83,0.7324,0,"group1",188,1,0,0,1,0,2,4,2,3,0.36,0.726436878424587,0.49103270270957,0.603809317498476,-1.08856295281511,0.0830536895699795,3
10,1,260," S4-20.jpg",2," [10 144 240]"," blue","congruent",128,2,1,2.2375,3,2e-04,2.2383,76,28,101,0.7324,0,"group1",177,2,0,1,0,0,3,1,3,2,0.56,0.805359171166873,0.63449505193458,0.603809317498476,-8.51719319141624,-3.99987788560034,3
10,1,261," S4-20.jpg",2," [240 239 10]"," yellow","neutral",134,2,1,2.3439,3,0.47,2.345,78,44,84,0.7324,0,"group1",162,3,0,1,0,0,3,1,2,1,0.5,0.851816208688671,0.718943127495119,0.603809317498476,-0.755022584278033,0.266374498191948,3
10,1,262," S4-20.jpg",2," [10 144 240]"," blue","congruent",94,2,1,1.6448,3,0.066,1.6455,99,29,90,0.7324,0,"group1",189,2,1,0,0,0,1,3,3,3,0.56,0.497618796278709,0.0750947152387567,0.603809317498476,-2.71810053695571,-0.81257447356596,2
10,1,263," S4-20.jpg",2," [240 37 33]"," red","incongruent",49,2,1,0.8153,3,2e-04,0.8161,92,33,99,0.7324,0,"group1",191,1,1,0,0,0,1,3,3,3,0.36,-0.204199135313272,-1.20064684897554,0.603809317498476,-8.51719319141624,-3.99987788560034,1
10,1,264," S4-20.jpg",2," [10 144 240]"," blue","congruent",44,2,1,0.7612,3,0.295,0.7623,76,61,132,0.7324,0,"group1",208,2,1,0,0,0,1,1,4,4,0.56,-0.272859143560143,-1.32545475481108,0.603809317498476,-1.22077992264232,0.010384459369809,1
10,1,265," S4-20.jpg",2," [240 37 33]"," red","incongruent",72,2,1,1.2675,3,0.3693,1.2683,131,74,101,0.7324,0,"group1",232,1,1,0,0,0,1,4,3,4,0.36,0.237046456483201,-0.398565117885829,0.603809317498476,-0.99614595712362,0.133848016070502,2
10,1,266," S4-20.jpg",2," [10 144 240]"," blue","congruent",47,2,1,0.8113,3,0.306,0.8122,86,44,107,0.7324,0,"group1",193,2,1,0,0,0,1,2,4,3,0.56,-0.209117379581118,-1.20958707172137,0.603809317498476,-1.18417017702976,0.0305059463087828,1
10,1,267," S4-20.jpg",2," [240 37 33]"," red","incongruent",83,2,1,1.4572,3,0.3403,1.458,78,26,90,0.7324,0,"group1",168,1,0,0,1,0,2,1,3,1,0.36,0.376516786152272,-0.145040537614851,0.603809317498476,-1.07792769747528,0.0888990498103315,2
10,1,268," S4-20.jpg",2," [10 144 240]"," blue","congruent",142,2,1,2.472,3,3e-04,2.4728,77,24,77,0.7324,0,"group1",154,2,0,1,0,0,3,1,1,1,0.56,0.905027539595444,0.815668935527617,0.603809317498476,-8.11172808330807,-3.77702572586807,4
10,1,269," S4-20.jpg",2," [240 239 10]"," yellow","neutral",119,2,1,2.062,3,4e-04,2.0629,75,30,79,0.7324,0,"group1",154,3,0,1,0,0,3,1,1,1,0.5,0.723676385594768,0.486014769593032,0.603809317498476,-7.82404601085629,-3.61890960223597,3
10,1,270," S4-20.jpg",2," [10 144 240]"," blue","congruent",72,2,1,1.2587,2,0.4786,1.2596,124,47,107,0.7324,0,"group1",231,2,1,0,0,0,1,4,4,4,0.56,0.230079442315322,-0.411229527203886,-0.738588183011529,-0.736890103507864,0.276340491368994,2
10,1,271," S4-20.jpg",2," [10 144 240]"," blue","congruent",113,2,1,1.9938,2,0.1088,1.9948,110,71,93,0.7324,0,"group1",203,2,0,0,1,0,2,4,3,3,0.56,0.690042365606467,0.424875953756055,-0.738588183011529,-2.2182439445603,-0.537842766831745,3
10,1,272," S4-20.jpg",2," [240 239 10]"," yellow","neutral",114,2,1,1.9888,2,0.1371,1.9896,92,29,102,0.7324,0,"group1",194,3,0,0,1,0,2,3,3,3,0.5,0.68753144177431,0.420311678959039,-0.738588183011529,-1.98704469241387,-0.410770790380516,3
10,1,273," S4-20.jpg",2," [240 37 33]"," red","incongruent",102,2,1,1.7755,2,0.6928,1.7763,104,24,99,0.7324,0,"group1",203,1,1,0,0,0,1,4,3,3,0.36,0.574082073401006,0.214087146708378,-0.738588183011529,-0.367013921733912,0.479632227929122,3
10,1,274," S4-20.jpg",2," [240 239 10]"," yellow","neutral",61,2,1,1.047,2,0.6311,1.0481,83,28,85,0.7324,0,"group1",168,3,1,0,0,0,1,2,2,1,0.5,0.0459289318883997,-0.745972271222978,-0.738588183011529,-0.460290950391943,0.428365209203788,2
10,1,275," S4-20.jpg",2," [10 144 240]"," blue","congruent",123,2,1,2.1637,2,0.0407,2.1647,96,39,85,0.7324,0,"group1",181,2,0,0,1,0,2,3,2,2,0.56,0.771819719211247,0.573528138758533,-0.738588183011529,-3.20152718653359,-1.07827593782567,3
9,1,1," S3-12.jpg",1," [240 168 10]"," orange","congruent",294,2,0,4.2056,3,1.5447,4.2094,94,53,78,0.7703,0,"group1",172,1,0,0,0,1,4,3,1,2,0.48,1.4364169705231,0.00227609514010334,0.559172005984291,0.434829716738068,1.25476153251018,2
9,1,2," S3-12.jpg",1," [181 10 240]"," purple","incongruent",89,1,1,1.3278,2,0.7437,1.3287,87,60,80,0.7703,0,"group1",167,2,0,0,1,0,2,2,1,1,0.64,0.283523437302922,-3.47090562752207,-0.591790373000041,-0.296117551272883,0.691033608926691,1
9,1,3," S3-12.jpg",1," [181 10 240]"," purple","incongruent",87,1,1,1.2364,4,0.7878,1.2372,81,39,79,0.7703,0,"group1",160,2,0,0,1,0,2,2,1,1,0.64,0.212203931275824,-3.685761204091,1.71013438496862,-0.238511028445332,0.735461445132728,1
9,1,4," S3-12.jpg",1," [240 168 10]"," orange","congruent",171,2,0,2.4508,3,0.4797,2.4516,82,32,77,0.7703,0,"group1",159,1,0,1,0,0,3,2,1,1,0.48,0.896414501869362,-1.62452347505267,0.559172005984291,-0.734594370474119,0.352867454341509,1
9,1,5," S3-12.jpg",1," [181 10 240]"," purple","incongruent",185,1,1,2.702,2,0.9325,2.7029,84,49,79,0.7703,0,"group1",163,2,0,1,0,0,3,2,1,1,0.64,0.993992239538007,-1.33056292688058,-0.591790373000041,-0.0698861274641664,0.865509903420638,1
9,1,6," S3-12.jpg",1," [181 10 240]"," purple","incongruent",173,1,1,2.5303,2,0.1023,2.5317,119,41,78,0.7703,0,"group1",197,2,0,1,0,0,3,4,1,3,0.64,0.928337872784822,-1.52835182936771,-0.591790373000041,-2.27984560602456,-0.838875518858338,1
9,1,7," S3-12.jpg",1," [240 168 10]"," orange","congruent",208,1,1,2.9984,2,0.309,2.9992,80,54,81,0.7703,0,"group1",161,1,0,1,0,0,3,1,2,1,0.48,1.09807881306197,-1.01699400284629,-0.591790373000041,-1.17441400208439,0.0136656835303189,1
9,1,8," S3-12.jpg",1," [10 240 94]"," green","neutral",93,2,0,1.3364,3,0.4969,1.3374,76,57,78,0.7703,0,"group1",154,3,0,0,1,0,2,1,1,1,0.5,0.289979431500464,-3.45145644127685,0.559172005984291,-0.699366480373862,0.380036234098338,1
9,1,9," S3-12.jpg",1," [181 10 240]"," purple","incongruent",268,1,1,3.861,4,0.624,3.8619,87,25,75,0.7703,0,"group1",162,2,0,0,0,1,4,2,1,1,0.64,1.3509262172821,-0.255271469363898,1.71013438496862,-0.471604910612709,0.555692621929105,2
9,1,10," S3-12.jpg",1," [181 10 240]"," purple","incongruent",227,2,0,3.2769,2,0.3879,3.278,97,34,84,0.7703,0,"group1",181,2,0,0,0,1,4,3,2,2,0.64,1.18689785353547,-0.749419713366733,-0.591790373000041,-0.947007704536216,0.189048075033727,1
9,1,11," S3-12.jpg",1," [240 168 10]"," orange","congruent",226,1,1,3.2821,3,0.2725,3.283,80,63,77,0.7703,0,"group1",157,1,0,0,0,1,4,1,1,1,0.48,1.1884834614298,-0.744642945868936,0.559172005984291,-1.30011666487884,-0.0832798885885276,2
9,1,12," S3-12.jpg",1," [181 10 240]"," purple","incongruent",244,1,1,3.5188,2,0.3674,3.5198,108,30,131,0.7703,0,"group1",239,2,0,1,0,0,3,4,4,4,0.64,1.25812002239638,-0.534857372605613,-0.591790373000041,-1.00130410620111,0.147173101135954,2
9,1,14," S3-12.jpg",1," [181 10 240]"," purple","incongruent",295,2,0,4.2289,2,0.6222,4.2299,79,35,92,0.7703,0,"group1",171,2,0,0,0,1,4,1,3,2,0.64,1.44194191195871,0.0189204122951511,-0.591790373000041,-0.4744936945186,0.553464707243302,2
9,1,15," S3-12.jpg",1," [181 10 240]"," purple","incongruent",191,1,1,2.7567,3,0.4473,2.7577,79,56,125,0.7703,0,"group1",204,2,0,1,0,0,3,1,4,4,0.64,1.01403431219281,-1.27018461923711,0.559172005984291,-0.804525768543335,0.298934313673065,1
9,1,16," S3-12.jpg",1," [181 10 240]"," purple","incongruent",248,1,1,3.5937,2,0.239,3.5952,82,28,84,0.7703,0,"group1",166,2,0,0,0,1,4,2,2,1,0.64,1.27918231242326,-0.471405580526922,-0.591790373000041,-1.43129172705063,-0.184445935251869,2
9,1,17," S3-12.jpg",1," [10 240 94]"," green","neutral",290,2,0,4.1401,4,0.2273,4.141,86,36,82,0.7703,0,"group1",168,3,0,0,0,1,4,2,2,1,0.5,1.42071994213488,-0.0450124276307802,1.71013438496862,-1.48148454812364,-0.223156107709705,2
9,1,18," S3-12.jpg",1," [240 168 10]"," orange","congruent",283,1,1,4.038,3,0.496,4.0389,79,75,83,0.7703,0,"group1",162,1,0,0,0,1,4,1,2,1,0.48,1.39574951989065,-0.120237772943963,0.559172005984291,-0.70117935225721,0.378638094249887,2
9,1,19," S3-12.jpg",1," [240 168 10]"," orange","congruent",204,1,1,3.0149,4,0.1801,3.0156,100,26,104,0.7703,0,"group1",204,1,0,1,0,0,3,3,4,4,0.48,1.10356666213324,-1.00046142933289,1.71013438496862,-1.71424302680023,-0.402666257925957,1
9,1,20," S3-12.jpg",1," [10 240 94]"," green","neutral",317,2,0,4.5304,4,0.0086,4.5319,80,36,96,0.7703,0,"group1",176,3,0,0,0,1,4,1,3,2,0.5,1.51081023581746,0.2263916113299,1.71013438496862,-4.75599307572268,-2.74855290964726,3
9,1,21," S3-12.jpg",1," [181 10 240]"," purple","incongruent",257,2,0,3.6853,2,0.2132,3.6863,120,38,121,0.7703,0,"group1",241,2,0,1,0,0,3,4,4,4,0.64,1.30435193345378,-0.395580133327669,-0.591790373000041,-1.54552458669045,-0.272545659524724,2
9,1,23," S3-12.jpg",1," [240 168 10]"," orange","congruent",218,1,1,3.1344,3,0.1153,3.1354,92,30,75,0.7703,0,"group1",167,1,0,0,0,1,4,3,1,1,0.48,1.14243776820814,-0.883359189387192,0.559172005984291,-2.16021785170712,-0.746615093933524,1
9,1,24," S3-12.jpg",1," [181 10 240]"," purple","incongruent",268,1,1,3.8245,2,0.4207,3.8254,77,82,80,0.7703,0,"group1",157,2,0,0,0,1,4,1,1,1,0.64,1.34142773977978,-0.283886373952716,-0.591790373000041,-0.865835288385662,0.251650617804462,2
9,1,25," S3-12.jpg",1," [240 168 10]"," orange","congruent",266,1,1,3.8462,2,0.3059,3.8471,83,34,87,0.7703,0,"group1",170,1,0,0,0,1,4,2,2,2,0.48,1.34708564789461,-0.266841484301866,-0.591790373000041,-1.18449702782528,0.00588935900855544,2
9,1,26," S3-12.jpg",1," [10 240 94]"," green","neutral",239,2,0,3.4575,3,0.4036,3.4583,122,23,108,0.7703,0,"group1",230,3,0,1,0,0,3,4,4,4,0.5,1.24054578455678,-0.587801135316945,0.559172005984291,-0.907330990502683,0.219647917998602,2
9,1,27," S3-12.jpg",1," [240 168 10]"," orange","congruent",293,2,0,4.1813,3,0.3359,4.1822,78,27,80,0.7703,0,"group1",158,1,0,0,0,1,4,1,1,1,0.48,1.43062220296939,-0.0151810942487615,0.559172005984291,-1.09094178236389,0.078041902115814,2
9,1,28," S3-12.jpg",1," [181 10 240]"," purple","incongruent",335,2,0,4.8202,3,0.69,4.8215,88,39,88,0.7703,0,"group1",176,2,0,0,0,1,4,2,2,2,0.64,1.5728154209776,0.413187069542743,0.559172005984291,-0.371063681390832,0.633232960150784,3
9,1,29," S3-12.jpg",1," [10 240 94]"," green","neutral",365,2,0,5.222,4,0.4421,5.2227,119,32,86,0.7703,0,"group1",205,3,0,0,0,1,4,4,2,4,0.5,1.65288047027694,0.654389277585138,1.71013438496862,-0.81621917814994,0.289916013987671,3
9,1,30," S3-12.jpg",1," [10 240 94]"," green","neutral",272,2,0,3.9111,4,0.2841,3.912,90,45,135,0.7703,0,"group1",225,3,0,0,0,1,4,3,4,4,0.5,1.36381866435471,-0.21643196663211,1.71013438496862,-1.25842899012199,-0.0511291338649361,2
9,1,31," S3-12.jpg",1," [240 168 10]"," orange","congruent",243,1,1,3.4868,3,0.5364,3.4878,91,25,82,0.7703,0,"group1",173,1,0,0,0,1,4,3,2,2,0.48,1.24898441015528,-0.562379117282666,0.559172005984291,-0.622875127574614,0.439028603825571,2
9,1,32," S3-12.jpg",1," [240 168 10]"," orange","congruent",248,1,1,3.571,4,0.4797,3.5723,83,43,82,0.7703,0,"group1",165,1,0,0,0,1,4,2,2,1,0.48,1.27284566861231,-0.490495214420285,1.71013438496862,-0.734594370474119,0.352867454341509,2
9,1,33," S3-12.jpg",1," [240 168 10]"," orange","congruent",304,1,1,4.3323,2,0.4256,4.3331,88,48,79,0.7703,0,"group1",167,1,0,0,0,1,4,2,1,1,0.48,1.46609857881849,0.0916942560199095,-0.591790373000041,-0.854255340954702,0.260581412139632,3
9,1,34," S3-12.jpg",1," [181 10 240]"," purple","incongruent",387,2,0,5.5592,2,0.3267,5.5606,114,27,106,0.7703,0,"group1",220,2,0,0,0,1,4,4,4,4,0.64,1.71545421301798,0.842897559871818,-0.591790373000041,-1.11871296037511,0.0566239569358075,4
9,1,35," S3-12.jpg",1," [10 240 94]"," green","neutral",148,1,1,2.2084,4,0.4773,2.2092,78,30,78,0.7703,0,"group1",156,3,0,1,0,0,3,1,1,1,0.5,0.792268271427753,-1.93827212020609,1.71013438496862,-0.739610054970286,0.348999211678713,1
9,1,37," S3-12.jpg",1," [240 168 10]"," orange","congruent",223,1,1,3.2361,4,0.1373,3.237,101,33,87,0.7703,0,"group1",188,1,0,0,0,1,4,3,2,3,0.48,1.17436890106736,-0.787164160241037,1.71013438496862,-1.98558696620821,-0.611934644625963,1
9,1,38," S3-12.jpg",1," [10 240 94]"," green","neutral",288,2,0,4.1868,3,0.2326,4.1878,76,33,75,0.7703,0,"group1",151,3,0,0,0,1,4,1,1,1,0.5,1.43193671899859,-0.0112210121464581,0.559172005984291,-1.45843503889757,-0.205379651672065,2
9,1,39," S3-12.jpg",1," [240 168 10]"," orange","congruent",224,1,1,3.2348,3,0.3514,3.2358,133,26,91,0.7703,0,"group1",224,1,0,1,0,0,3,4,3,4,0.48,1.17396710223953,-0.788374610559978,0.559172005984291,-1.04583010322914,0.112833349215957,1
9,1,40," S3-12.jpg",1," [10 240 94]"," green","neutral",283,1,1,4.0868,2,0.5194,4.0878,92,29,86,0.7703,0,"group1",178,3,0,0,0,1,4,3,2,2,0.5,1.40776226773513,-0.0840484327749005,-0.591790373000041,-0.655080979753489,0.414190508150846,2
9,1,41," S3-12.jpg",1," [181 10 240]"," purple","incongruent",346,2,0,4.9605,2,0.1964,4.9615,102,32,114,0.7703,0,"group1",216,2,0,0,0,1,4,3,4,4,0.64,1.60150654210782,0.499621310555298,-0.591790373000041,-1.62760188306177,-0.335846072402196,3
9,1,42," S3-12.jpg",1," [240 168 10]"," orange","congruent",411,2,0,5.9111,2,0.2626,5.9119,81,51,80,0.7703,0,"group1",161,1,0,0,0,1,4,2,1,1,0.48,1.77683193931036,1.02780274928844,-0.591790373000041,-1.33712331711344,-0.111820501757187,4
9,1,43," S3-12.jpg",1," [240 168 10]"," orange","congruent",343,1,1,4.9084,2,2e-04,4.9092,107,41,114,0.7703,0,"group1",221,1,0,0,0,1,4,4,4,4,0.48,1.59094802312026,0.467812948283058,-0.591790373000041,-8.51719319141624,-5.64930050690097,3
9,1,44," S3-12.jpg",1," [181 10 240]"," purple","incongruent",327,2,0,4.6802,2,0.3815,4.6812,91,37,94,0.7703,0,"group1",185,2,0,0,0,1,4,3,3,3,0.64,1.54334084405917,0.324392606839548,-0.591790373000041,-0.963644428257625,0.176217346841496,3
9,1,45," S3-12.jpg",1," [10 240 94]"," green","neutral",468,2,0,6.7074,3,0.9313,6.7085,75,38,97,0.7703,0,"group1",172,3,0,0,0,1,4,1,3,2,0.5,1.9032113945222,1.40853071879637,0.559172005984291,-0.0711738194545249,0.864516797674563,4
9,1,46," S3-12.jpg",1," [181 10 240]"," purple","incongruent",509,2,0,7.2944,2,0.3871,7.2954,91,44,83,0.7703,0,"group1",174,2,0,0,0,1,4,3,2,2,0.64,1.98710693047704,1.66127256675992,-0.591790373000041,-0.949072221398535,0.187455859213337,4
9,1,47," S3-12.jpg",1," [10 240 94]"," green","neutral",275,1,1,3.945,1,1.1649,3.9461,77,54,120,0.7703,0,"group1",197,3,0,0,0,1,4,1,4,3,0.5,1.37244895429784,-0.190432544805154,-1.74275275198437,0.152635246423594,1.03712489884438,2
9,1,50," S3-12.jpg",1," [240 168 10]"," orange","congruent",267,1,1,3.8618,4,1.1608,3.8626,82,25,102,0.7703,0,"group1",184,1,0,0,0,1,4,2,3,3,0.48,1.3511333960263,-0.25464732723199,1.71013438496862,0.149109422587841,1.03440568032228,2
9,1,51," S3-12.jpg",1," [10 240 94]"," green","neutral",263,2,0,3.8112,4,1.3819,3.812,96,23,80,0.7703,0,"group1",176,3,0,0,0,1,4,3,1,2,0.5,1.33794410017884,-0.294381110059467,1.71013438496862,0.323459363827302,1.16886945719538,2
9,1,53," S3-12.jpg",1," [181 10 240]"," purple","incongruent",306,1,1,4.4469,3,2e-04,4.4476,94,69,96,0.7703,0,"group1",190,2,0,0,0,1,4,3,3,3,0.64,1.49220722420579,0.170348587360756,0.559172005984291,-8.51719319141624,-5.64930050690097,3
9,1,54," S3-12.jpg",1," [240 168 10]"," orange","congruent",287,1,1,4.1499,4,0.0708,4.1506,80,28,90,0.7703,0,"group1",170,1,0,0,0,1,4,1,3,2,0.48,1.42308423756674,-0.0378898031695355,1.71013438496862,-2.64789627828246,-1.12272696796499,2
9,1,55," S3-12.jpg",1," [181 10 240]"," purple","incongruent",255,1,1,3.6951,3,0.5845,3.6959,92,29,109,0.7703,0,"group1",201,2,0,0,0,1,4,3,4,3,0.64,1.30700761763341,-0.387579677528345,0.559172005984291,-0.536998498070014,0.505259173599383,2
9,1,56," S3-12.jpg",1," [10 240 94]"," green","neutral",363,2,0,5.1926,3,0.3201,5.1933,75,49,95,0.7703,0,"group1",170,3,0,0,0,1,4,1,3,2,0.5,1.64723453512867,0.637380457430221,0.559172005984291,-1.13912183200632,0.0408840378871327,3
9,1,57," S3-12.jpg",1," [240 168 10]"," orange","congruent",409,1,1,5.8362,2,0.9706,5.8377,130,37,81,0.7703,0,"group1",211,1,0,0,0,1,4,4,2,4,0.48,1.76407990012131,0.989386236261096,-0.591790373000041,-0.0298408420110212,0.896393999450219,4
9,1,58," S3-12.jpg",1," [240 168 10]"," orange","congruent",448,2,0,6.1978,3,0.2746,6.1988,141,25,110,0.7703,0,"group1",251,1,0,0,0,1,4,4,4,4,0.48,1.82419439037122,1.1704858285365,0.559172005984291,-1.29243978564827,-0.0773592546691644,4
9,1,59," S3-12.jpg",1," [240 168 10]"," orange","congruent",360,2,0,5.1497,3,1.0853,5.1505,84,72,108,0.7703,0,"group1",192,1,0,0,0,1,4,2,4,3,0.48,1.63893846055172,0.61238788547086,0.559172005984291,0.0818564464698321,0.982538217044141,3
9,1,61," S3-12.jpg",1," [181 10 240]"," purple","incongruent",211,1,1,3.0081,2,0.4392,3.0088,76,85,139,0.7703,0,"group1",215,2,0,1,0,0,3,1,4,4,0.64,1.10130865021585,-1.00726386641407,-0.591790373000041,-0.822800388786816,0.28484039175149,1
9,1,63," S4-20.jpg",2," [240 168 10]"," orange","incongruent",159,1,0,2.3075,4,0.1993,2.3085,78,23,77,0.7631,0,"group1",155,1,0,1,0,0,3,1,1,1,0.52,0.83616468739487,-1.80603074211324,1.71013438496862,-1.61294405176339,-0.324541523957052,1
9,1,64," S3-12.jpg",1," [240 168 10]"," orange","congruent",194,1,1,2.8045,3,0.5612,2.8052,82,31,98,0.7703,0,"group1",180,1,0,1,0,0,3,2,3,2,0.48,1.03122526996625,-1.2183955176303,0.559172005984291,-0.577677930753831,0.473886004667778,1
9,1,65," S4-20.jpg",2," [181 10 240]"," purple","congruent",361,2,1,5.2096,2,0.3979,5.2106,75,24,111,0.7631,0,"group1",186,2,0,0,0,1,4,1,4,3,0.36,1.65050307738603,0.647227196006604,-0.591790373000041,-0.921554561549254,0.20867828376788,3
9,1,66," S3-12.jpg",1," [240 168 10]"," orange","congruent",287,1,1,4.0983,3,0.3282,4.0993,93,43,76,0.7703,0,"group1",169,1,0,0,0,1,4,3,1,1,0.48,1.41057225357941,-0.0755831311715151,0.559172005984291,-1.11413210032615,0.0601568502601882,2
9,1,67," S3-12.jpg",1," [240 168 10]"," orange","congruent",318,2,0,4.555,2,0.3888,4.5559,76,54,138,0.7703,0,"group1",214,1,0,0,0,1,4,1,4,4,0.48,1.51622553071192,0.242705609724654,-0.591790373000041,-0.944690206395853,0.190835397419007,3
9,1,68," S4-20.jpg",2," [181 10 240]"," purple","congruent",401,2,1,5.7425,2,0.3433,5.7434,85,46,96,0.7631,0,"group1",181,2,0,0,0,1,4,2,3,2,0.36,1.74789465558112,0.940626924239617,-0.591790373000041,-1.06915057851849,0.0948479162207434,4
9,1,69," S3-12.jpg",1," [181 10 240]"," purple","incongruent",339,1,1,4.8694,3,1.3328,4.8703,95,34,86,0.7703,0,"group1",181,2,0,0,0,1,4,3,2,2,0.64,1.58297072621893,0.443780718943937,0.559172005984291,0.287281992430441,1.14096840967692,3
9,1,70," S4-20.jpg",2," [181 10 240]"," purple","congruent",217,1,0,3.1029,4,0.3583,3.1038,115,25,86,0.7631,0,"group1",201,2,0,1,0,0,3,4,2,3,0.36,1.13233715806973,-0.913788065523283,1.71013438496862,-1.02638465467123,0.127830248196824,1
9,1,71," S3-12.jpg",1," [10 240 94]"," green","neutral",445,2,0,6.4847,2,1.4755,6.4854,109,42,82,0.7703,0,"group1",191,3,0,0,0,1,4,4,2,3,0.5,1.86944555609696,1.30680849598077,-0.591790373000041,0.388996915400857,1.21941393486453,4
9,1,73," S4-20.jpg",2," [181 10 240]"," purple","congruent",219,1,0,3.1565,4,0.1659,3.1572,117,41,110,0.7631,0,"group1",227,2,0,1,0,0,3,4,4,4,0.36,1.14946381882554,-0.862192663698816,1.71013438496862,-1.79637008178574,-0.46600504610283,1
9,1,74," S3-12.jpg",1," [240 168 10]"," orange","congruent",453,2,0,6.5261,2,0.4243,6.5271,80,71,101,0.7703,0,"group1",181,1,0,0,0,1,4,1,3,2,0.48,1.87580952137582,1.32598043792796,-0.591790373000041,-0.857314526773858,0.258222078511666,4
9,1,75," S3-12.jpg",1," [10 240 94]"," green","neutral",224,2,0,3.2297,3,0.2609,3.2306,85,30,79,0.7703,0,"group1",164,3,0,0,0,1,4,2,1,1,0.5,1.17238925366405,-0.793128002504302,0.559172005984291,-1.34361808683945,-0.116829458233297,1
9,1,76," S3-12.jpg",1," [240 168 10]"," orange","congruent",384,2,0,5.5142,2,0.3008,5.5149,87,24,108,0.7703,0,"group1",195,1,0,0,0,1,4,2,4,3,0.48,1.70732658325321,0.818412441051943,-0.591790373000041,-1.20130968690645,-0.00707705568171034,4
9,1,77," S4-20.jpg",2," [240 168 10]"," orange","incongruent",357,2,1,5.1248,2,0.412,5.1258,104,28,100,0.7631,0,"group1",204,1,0,0,0,1,4,4,3,4,0.52,1.63409149987276,0.597786038244236,-0.591790373000041,-0.886731929632611,0.235534516554001,3
9,1,78," S3-12.jpg",1," [240 168 10]"," orange","congruent",255,1,1,3.6707,3,0.3818,3.6717,112,25,116,0.7703,0,"group1",228,1,0,0,0,1,4,4,4,4,0.48,1.30038237957356,-0.407538724113925,0.559172005984291,-0.96285836769049,0.176823579754204,2
9,1,79," S4-20.jpg",2," [181 10 240]"," purple","congruent",347,2,1,4.9939,3,1.0162,4.9947,77,36,84,0.7631,0,"group1",161,2,0,0,0,1,4,1,2,1,0.36,1.60821716762826,0.519837593528222,0.559172005984291,0.0160701801774945,0.931801923305459,3
9,1,80," S4-20.jpg",2," [181 10 240]"," purple","congruent",174,1,0,2.4896,4,0.5911,2.4904,110,37,76,0.7631,0,"group1",186,2,0,1,0,0,3,4,1,3,0.36,0.912122055001935,-1.57720324566825,1.71013438496862,-0.525770071151813,0.513918865028193,1
9,1,81," S3-12.jpg",1," [240 168 10]"," orange","congruent",313,1,1,4.4878,3,0.4231,4.4888,110,27,84,0.7703,0,"group1",194,1,0,0,0,1,4,4,2,3,0.48,1.50136260394757,0.197929883175957,0.559172005984291,-0.860146721256115,0.256037807245406,3
9,1,82," S3-12.jpg",1," [10 240 94]"," green","neutral",284,1,1,4.0743,2,0.3447,4.0758,85,35,88,0.7703,0,"group1",173,3,0,0,0,1,4,2,2,2,0.5,1.404698952796,-0.093276908042386,-0.591790373000041,-1.06508080545932,0.0979866443021096,2
9,1,83," S4-20.jpg",2," [181 10 240]"," purple","congruent",292,2,1,4.2154,2,0.1197,4.2161,78,28,76,0.7631,0,"group1",154,2,0,0,0,1,4,1,1,1,0.36,1.43874448612081,0.00928791748122876,-0.591790373000041,-2.12276666641821,-0.717731643864532,2
9,1,85," S3-12.jpg",1," [10 240 94]"," green","neutral",297,2,0,4.2779,4,0.1746,4.2788,86,33,126,0.7703,0,"group1",212,3,0,0,0,1,4,2,4,4,0.5,1.45346223497794,0.0536262842569734,1.71013438496862,-1.74525763557664,-0.426585631828066,2
9,1,86," S4-20.jpg",2," [240 168 10]"," orange","incongruent",328,2,1,4.7167,3,0.4305,4.7182,80,59,119,0.7631,0,"group1",199,1,0,0,0,1,4,1,4,3,0.52,1.55110940253397,0.347795995382064,0.559172005984291,-0.842807955114352,0.269409971096834,3
9,1,87," S3-12.jpg",1," [240 168 10]"," orange","congruent",347,2,0,4.9955,3,0.8269,4.9966,83,41,99,0.7703,0,"group1",182,1,0,0,0,1,4,2,3,2,0.48,1.60853750719094,0.52080264145508,0.559172005984291,-0.190071510254016,0.772819419099416,3
9,1,88," S3-12.jpg",1," [181 10 240]"," purple","incongruent",225,1,1,3.2459,2,0.5835,3.2468,81,27,93,0.7703,0,"group1",174,2,0,0,0,1,4,2,3,2,0.64,1.17739266147059,-0.778054846099172,-0.591790373000041,-0.538710827255526,0.503938575221792,1
9,1,89," S4-20.jpg",2," [181 10 240]"," purple","congruent",248,1,0,3.6171,3,0.2472,3.6179,76,35,102,0.7631,0,"group1",178,2,0,0,0,1,4,1,3,2,0.36,1.28567259980924,-0.451853083375821,0.559172005984291,-1.3975575533986,-0.158429153332142,2
9,1,90," S3-12.jpg",1," [10 240 94]"," green","neutral",383,2,0,5.4847,3,0.3636,5.4856,95,45,101,0.7703,0,"group1",196,3,0,0,0,1,4,3,3,3,0.5,1.70196239760969,0.80225241326343,0.559172005984291,-1.01170091667881,0.139154776642541,4
9,1,91," S4-20.jpg",2," [181 10 240]"," purple","congruent",379,2,1,5.4184,2,0.2197,5.4193,90,34,133,0.7631,0,"group1",223,2,0,0,0,1,4,3,4,4,0.36,1.68980056891856,0.765613955411889,-0.591790373000041,-1.51549229959157,-0.24938388084706,3
9,1,92," S3-12.jpg",1," [181 10 240]"," purple","incongruent",317,1,1,4.5357,1,0.5601,4.5371,80,44,77,0.7703,0,"group1",157,2,0,0,0,1,4,1,1,1,0.64,1.51197942667213,0.229913890005019,-1.74275275198437,-0.57963993976635,0.47237284590095,3
9,1,93," S3-12.jpg",1," [10 240 94]"," green","neutral",363,2,0,5.2118,3,1.5015,5.2127,102,64,80,0.7703,0,"group1",182,3,0,0,0,1,4,3,1,2,0.5,1.65092528554092,0.64849913101575,0.559172005984291,0.406464608441248,1.23288553091311,3
9,1,94," S3-12.jpg",1," [10 240 94]"," green","neutral",413,2,0,5.9508,3,1.158,5.9516,98,40,80,0.7703,0,"group1",178,3,0,0,0,1,4,3,1,2,0.5,1.78352566430095,1.04796811809651,0.559172005984291,0.146694379150803,1.03254312814963,4
9,1,96," S4-20.jpg",2," [181 10 240]"," purple","congruent",383,1,0,5.5279,2,0.3607,5.5291,90,24,77,0.7631,0,"group1",167,2,0,0,0,1,4,3,1,1,0.36,1.70980799657671,0.825887892299795,-0.591790373000041,-1.01970869107264,0.132978946689933,4
9,1,97," S3-12.jpg",1," [240 168 10]"," orange","congruent",212,1,1,3.0573,3,0.4583,3.0581,84,37,89,0.7703,0,"group1",173,1,0,0,0,1,4,2,3,2,0.48,1.11753217352062,-0.958389236627644,0.559172005984291,-0.780231287467059,0.317670928434531,1
9,1,98," S4-20.jpg",2," [181 10 240]"," purple","congruent",271,1,0,3.8863,2,0.1613,3.8871,86,50,85,0.7631,0,"group1",171,2,0,0,0,1,4,2,2,2,0.36,1.35745754818133,-0.235595325426724,-0.591790373000041,-1.82448929385097,-0.487691405330185,2
9,1,99," S3-12.jpg",1," [181 10 240]"," purple","incongruent",NA,2,0,7.8274,2,0.4732,7.8033,76,88,89,0.7703,0,"group1",165,2,NA,NA,NA,NA,NA,1,3,1,0.64,2.05763039866572,1.87373001723024,-0.591790373000041,-0.748237146877905,0.342345745935718,4
9,1,100," S3-12.jpg",1," [10 240 94]"," green","neutral",349,2,0,4.9656,4,0.7156,4.9665,89,23,113,0.7703,0,"group1",202,3,0,0,0,1,4,3,4,3,0.5,1.60253413611731,0.502717017686289,1.71013438496862,-0.334633927347573,0.661328652551889,3
9,1,101," S4-20.jpg",2," [240 168 10]"," orange","incongruent",427,2,1,6.1215,3,0.3507,6.1224,77,27,105,0.7631,0,"group1",182,1,0,0,0,1,4,1,4,2,0.52,1.81180716453183,1.13316834418938,0.559172005984291,-1.047824121836,0.11129550371324,4
9,1,102," S3-12.jpg",1," [181 10 240]"," purple","incongruent",444,2,0,6.3747,2,0.2944,6.3757,76,25,84,0.7703,0,"group1",160,2,0,0,0,1,4,1,2,1,0.64,1.85233703111366,1.25526772958601,-0.591790373000041,-1.22281589212742,-0.0236632705072546,4
9,1,103," S3-12.jpg",1," [181 10 240]"," purple","incongruent",312,1,1,4.522,3,1.187,4.5233,91,26,77,0.7703,0,"group1",168,2,0,0,0,1,4,3,1,1,0.64,1.50895437385578,0.220800682367807,0.559172005984291,0.171429115627531,1.05161928075959,3
9,1,104," S4-20.jpg",2," [181 10 240]"," purple","congruent",402,2,1,5.7455,2,0.4726,5.7464,108,28,90,0.7631,0,"group1",198,2,0,0,0,1,4,4,3,3,0.36,1.74841693971555,0.942200345945514,-0.591790373000041,-0.74950591422933,0.341367235425001,4
9,1,105," S4-20.jpg",2," [181 10 240]"," purple","congruent",189,1,0,2.7325,3,1.6452,2.7333,87,56,85,0.7631,0,"group1",172,2,0,1,0,0,3,2,2,2,0.36,1.00521694106856,-1.2967476377191,0.559172005984291,0.497861957374132,1.30337384106874,1
9,1,106," S3-12.jpg",1," [10 240 94]"," green","neutral",407,2,0,5.8879,2,0.3605,5.8894,85,34,92,0.7703,0,"group1",177,3,0,0,0,1,4,2,3,2,0.5,1.7728993975867,1.01595566051165,-0.591790373000041,-1.02026332225713,0.132551198889687,4
9,1,107," S3-12.jpg",1," [10 240 94]"," green","neutral",284,1,1,4.0933,2,0.4691,4.0942,134,42,103,0.7703,0,"group1",237,3,0,0,0,1,4,4,4,4,0.5,1.40935149069525,-0.079260774609349,-0.591790373000041,-0.756939313647725,0.335634380261999,2
9,1,108," S4-20.jpg",2," [181 10 240]"," purple","congruent",423,2,1,6.0491,2,0.127,6.0499,77,40,87,0.7631,0,"group1",164,2,0,0,0,1,4,1,2,1,0.36,1.79990950064626,1.09732570342589,-0.591790373000041,-2.06356819252355,-0.672076048408567,4
9,1,109," S4-20.jpg",2," [240 168 10]"," orange","incongruent",272,1,0,3.9156,2,1.2518,3.9166,78,35,94,0.7631,0,"group1",172,1,0,0,0,1,4,1,3,2,0.52,1.36496857440514,-0.21296777288413,-0.591790373000041,0.224582515508464,1.09261273823269,2
9,1,110," S4-20.jpg",2," [240 168 10]"," orange","incongruent",389,1,0,5.5406,3,0.9663,5.5417,91,27,77,0.7631,0,"group1",168,1,0,0,0,1,4,3,1,1,0.52,1.71210279814392,0.832801161071536,0.559172005984291,-0.0342809339768742,0.892969670590983,4
9,1,111," S3-12.jpg",1," [181 10 240]"," purple","incongruent",273,1,1,3.9283,3,0.4166,3.9293,79,32,106,0.7703,0,"group1",185,2,0,0,0,1,4,1,4,3,0.64,1.36820676232123,-0.203212479129191,0.559172005984291,-0.875628750155265,0.244097613491173,2
9,1,112," S4-20.jpg",2," [181 10 240]"," purple","congruent",226,1,0,3.2888,4,0.3385,3.2898,76,87,83,0.7631,0,"group1",159,2,0,1,0,0,3,1,2,1,0.36,1.19052275660153,-0.738499410049303,1.71013438496862,-1.08323118662981,0.0839885391893671,2
9,1,113," S3-12.jpg",1," [10 240 94]"," green","neutral",407,2,0,5.8502,4,0.397,5.851,78,61,92,0.7703,0,"group1",170,3,0,0,0,1,4,1,3,2,0.5,1.76647584869356,0.99660421827745,1.71013438496862,-0.923818998294947,0.206931883882962,4
9,1,114," S3-12.jpg",1," [240 168 10]"," orange","congruent",419,2,0,5.9919,2,0.2693,5.9928,107,51,86,0.7703,0,"group1",193,1,0,0,0,1,4,4,2,3,0.48,1.7904085571571,1.0687033698593,-0.591790373000041,-1.31192927916458,-0.0923901224108891,4
9,1,115," S3-12.jpg",1," [240 168 10]"," orange","congruent",246,1,1,3.4959,4,0.332,3.4968,88,42,81,0.7703,0,"group1",169,1,0,0,0,1,4,2,2,1,0.48,1.25159085326519,-0.554527004047891,1.71013438496862,-1.10262031006565,0.069035079790943,2
9,1,116," S3-12.jpg",1," [240 168 10]"," orange","congruent",274,1,1,3.9402,1,0.4463,3.9412,81,35,79,0.7703,0,"group1",160,1,0,0,0,1,4,2,1,1,0.48,1.37123148344284,-0.194100270748263,-1.74275275198437,-0.806763907346913,0.29720819553069,2
9,1,117," S4-20.jpg",2," [181 10 240]"," purple","congruent",340,2,1,4.8869,3,0.2166,4.888,87,23,90,0.7631,0,"group1",177,2,0,0,0,1,4,2,3,2,0.36,1.58655815562726,0.454588129943584,0.559172005984291,-1.52970294441525,-0.260343545996411,3
9,1,118," S3-12.jpg",1," [10 240 94]"," green","neutral",290,2,0,4.182,3,0.4046,4.1828,93,29,92,0.7703,0,"group1",185,3,0,0,0,1,4,3,3,3,0.5,1.43078960100644,-0.0146767946010121,0.559172005984291,-0.904856354248492,0.221556429895768,2
9,1,119," S4-20.jpg",2," [181 10 240]"," purple","congruent",415,1,0,5.958,1,0.2178,5.959,88,33,93,0.7631,0,"group1",181,2,0,0,0,1,4,2,3,2,0.36,1.78473485429109,1.05161089728814,-1.74275275198437,-1.52417806848328,-0.256082599997309,4
9,1,120," S4-20.jpg",2," [240 168 10]"," orange","incongruent",417,1,0,5.9992,2,0.3436,6.0001,104,66,80,0.7631,0,"group1",184,1,0,0,0,1,4,4,1,3,0.52,1.79162612700504,1.0723713940264,-0.591790373000041,-1.06827708887204,0.0955215769979525,4
9,1,121," S4-20.jpg",2," [10 240 94]"," green","neutral",308,2,1,4.2983,3,0.2453,4.2992,108,31,77,0.7631,0,"group1",185,3,0,0,0,1,4,4,1,3,0.5,1.45821959569135,0.0679582045963995,0.559172005984291,-1.40527332771769,-0.164379784282001,2
9,1,122," S3-12.jpg",1," [240 168 10]"," orange","congruent",213,1,1,3.067,4,0.3806,3.068,106,24,88,0.7703,0,"group1",194,1,0,1,0,0,3,4,2,3,0.48,1.12069988513211,-0.948846258239192,1.71013438496862,-0.966006324120088,0.174395783633674,1
9,1,123," S4-20.jpg",2," [181 10 240]"," purple","congruent",350,1,0,5.0699,2,0.2518,5.0706,142,31,130,0.7631,0,"group1",272,2,0,0,0,1,4,4,4,4,0.36,1.6233210935427,0.565339348820342,-0.591790373000041,-1.37912015737189,-0.144209693963058,3
9,1,124," S3-12.jpg",1," [181 10 240]"," purple","incongruent",283,1,1,4.0988,4,0.4938,4.0995,79,68,78,0.7703,0,"group1",157,2,0,0,0,1,4,1,1,1,0.64,1.41069424794343,-0.075215613631392,1.71013438496862,-0.705624702071058,0.37520971038441,2
9,1,125," S3-12.jpg",1," [240 168 10]"," orange","congruent",198,1,1,2.8646,4,0.3281,2.8656,81,33,82,0.7703,0,"group1",163,1,0,0,0,1,4,2,2,1,0.48,1.05242872436363,-1.15451845687122,1.71013438496862,-1.11443683901508,0.059921826865387,1
9,1,126," S3-12.jpg",1," [181 10 240]"," purple","incongruent",288,1,1,4.1509,2,0.7993,4.1519,112,33,105,0.7703,0,"group1",217,2,0,0,0,1,4,4,4,4,0.64,1.42332517820014,-0.037163950712186,-0.591790373000041,-0.224018934350164,0.746638172196606,2
9,1,127," S3-12.jpg",1," [240 168 10]"," orange","congruent",468,2,0,6.6832,2,0.2577,6.6842,77,24,76,0.7703,0,"group1",153,1,0,0,0,1,4,1,1,1,0.48,1.89959691476077,1.39764181649743,-0.591790373000041,-1.35595916132382,-0.12634725602573,4
9,1,128," S3-12.jpg",1," [240 168 10]"," orange","congruent",190,1,1,2.7829,2,1.3479,2.7837,127,40,92,0.7703,0,"group1",219,1,0,1,0,0,3,4,3,4,0.48,1.02349354945117,-1.24168792894492,-0.591790373000041,0.298547825762087,1.14965695002644,1
9,1,129," S4-20.jpg",2," [240 168 10]"," orange","incongruent",110,1,0,1.6108,4,0.4048,1.6118,77,143,91,0.7631,0,"group1",168,1,0,0,1,0,2,1,3,1,0.52,0.476730949995162,-2.88885292063474,1.71013438496862,-0.904362161008881,0.221937566184262,1
9,1,130," S4-20.jpg",2," [240 168 10]"," orange","incongruent",235,1,0,3.3802,3,0.1804,3.3811,81,66,86,0.7631,0,"group1",167,1,0,0,0,1,4,2,2,1,0.52,1.21793487934199,-0.655918251478999,0.559172005984291,-1.71257867135361,-0.401382658299712,2
9,1,131," S4-20.jpg",2," [10 240 94]"," green","neutral",306,2,1,4.3511,4,0.1479,4.3522,82,35,96,0.7631,0,"group1",178,3,0,0,0,1,4,2,3,2,0.5,1.47042868669668,0.104739043857059,1.71013438496862,-1.91121890926538,-0.554579822799484,3
9,1,133," S3-12.jpg",1," [181 10 240]"," purple","incongruent",392,2,0,5.5935,3,0.3838,5.595,102,23,83,0.7703,0,"group1",185,2,0,0,0,1,4,3,2,3,0.64,1.72160520930485,0.861427916113856,0.559172005984291,-0.957633695408538,0.180852999913231,4
9,1,135," S4-20.jpg",2," [240 168 10]"," orange","incongruent",193,1,0,2.7467,3,0.7424,2.7477,79,28,103,0.7631,0,"group1",182,1,0,1,0,0,3,1,4,2,0.52,1.01040019110196,-1.28113269257345,0.559172005984291,-0.297867097510146,0.689684307669666,1
9,1,136," S4-20.jpg",2," [10 240 94]"," green","neutral",465,2,1,6.6679,2,0.2196,6.6687,94,31,87,0.7631,0,"group1",181,3,0,0,0,1,4,3,2,2,0.5,1.89730496777549,1.39073714737646,-0.591790373000041,-1.51594756934676,-0.249734998205309,4
9,1,137," S4-20.jpg",2," [181 10 240]"," purple","congruent",469,2,1,6.7025,1,0.1023,6.7035,91,46,78,0.7631,0,"group1",169,2,0,0,0,1,4,3,1,1,0.36,1.90248059112798,1.40632911655077,-1.74275275198437,-2.27984560602456,-0.838875518858338,4
9,1,138," S3-12.jpg",1," [240 168 10]"," orange","congruent",288,1,1,4.1549,4,0.0778,4.1557,93,37,118,0.7703,0,"group1",211,1,0,0,0,1,4,3,4,4,0.48,1.4242883606291,-0.0342622884931957,1.71013438496862,-2.55361384779779,-1.05001359848738,2
9,1,139," S4-20.jpg",2," [10 240 94]"," green","neutral",441,2,1,6.3362,4,0.8672,6.3371,94,29,81,0.7631,0,"group1",175,3,0,0,0,1,4,3,2,2,0.5,1.84627921967051,1.23701809995636,1.71013438496862,-0.142485648296755,0.809519028396944,4
9,1,140," S4-20.jpg",2," [10 240 94]"," green","neutral",360,2,1,5.1587,4,0.477,5.1596,78,36,91,0.7631,0,"group1",169,3,0,0,0,1,4,1,3,1,0.5,1.64068460976727,0.617648296224959,1.71013438496862,-0.740238788093796,0.348514314294571,3
9,1,141," S4-20.jpg",2," [10 240 94]"," green","neutral",536,2,1,7.7162,1,0.3203,7.717,121,25,81,0.7631,0,"group1",202,3,0,0,0,1,4,4,2,3,0.5,2.04332201487345,1.83062489465284,-1.74275275198437,-1.13849722236702,0.0413657551195784,4
9,1,142," S3-12.jpg",1," [181 10 240]"," purple","incongruent",479,1,1,6.9349,1,0.3744,6.9359,83,35,101,0.7703,0,"group1",184,2,0,0,0,1,4,2,3,3,0.64,1.93656663405216,1.50901598040322,-1.74275275198437,-0.9824305343787,0.161728952042962,4
9,1,143," S4-20.jpg",2," [240 168 10]"," orange","incongruent",400,1,0,5.791,2,0.4351,5.7919,87,31,77,0.7631,0,"group1",164,1,0,0,0,1,4,2,1,1,0.52,1.75630498824365,0.965963707596743,-0.591790373000041,-0.832179389255503,0.277607032122294,4
9,1,144," S3-12.jpg",1," [181 10 240]"," purple","incongruent",511,2,0,7.3538,2,0.8224,7.3553,118,31,77,0.7703,0,"group1",195,2,0,0,0,1,4,4,1,3,0.64,1.9952171864255,1.68570534560257,-0.591790373000041,-0.195528384281236,0.76861091815927,4
9,1,145," S4-20.jpg",2," [240 168 10]"," orange","incongruent",307,2,1,4.4196,2,1.0034,4.4206,83,39,195,0.7631,0,"group1",278,1,0,1,0,0,3,2,4,4,0.52,1.48604919425688,0.151797041663037,-0.591790373000041,0.00339423306801562,0.922025861944801,3
9,1,147," S4-20.jpg",2," [181 10 240]"," purple","congruent",298,1,0,4.2837,3,0.4032,4.2847,76,68,128,0.7631,0,"group1",204,2,0,0,0,1,4,1,4,4,0.36,1.45481712212222,0.0577079874934065,0.559172005984291,-0.908322562224978,0.218883188868942,2
9,1,148," S4-20.jpg",2," [10 240 94]"," green","neutral",264,2,1,3.8237,4,0.2766,3.8244,87,57,137,0.7631,0,"group1",224,3,0,1,0,0,3,2,4,4,0.5,1.3412185402288,-0.284516603922726,1.71013438496862,-1.28518285975148,-0.0717625010503605,2
9,1,149," S3-12.jpg",1," [240 168 10]"," orange","congruent",437,1,1,6.2516,3,0.9996,6.2527,99,28,90,0.7703,0,"group1",189,1,0,0,0,1,4,3,3,3,0.48,1.8328374309859,1.19652366275637,0.559172005984291,-0.000400080021339691,0.919099576653239,4
9,1,151," S4-20.jpg",2," [181 10 240]"," purple","congruent",364,2,1,5.2893,3,0.2246,5.2901,86,29,95,0.7631,0,"group1",181,2,0,0,0,1,4,2,3,2,0.36,1.66568591197269,0.692966669830603,0.559172005984291,-1.49343423667779,-0.232372057219214,3
9,1,152," S3-12.jpg",1," [240 168 10]"," orange","congruent",387,2,0,5.6003,2,0.1291,5.6011,89,67,75,0.7703,0,"group1",164,1,0,0,0,1,4,3,1,1,0.48,1.72282016773478,0.86508807318043,-0.591790373000041,-2.04716798112954,-0.659427725444544,4
9,1,153," S4-20.jpg",2," [10 240 94]"," green","neutral",366,2,1,5.2983,3,0.7659,5.2994,78,83,83,0.7631,0,"group1",161,3,0,0,0,1,4,1,2,1,0.5,1.6673860143883,0.698088361007118,0.559172005984291,-0.266703666066589,0.713718457967838,3
9,1,154," S3-12.jpg",1," [240 168 10]"," orange","congruent",334,2,0,4.8086,3,0.5597,4.8096,75,30,85,0.7703,0,"group1",160,1,0,0,0,1,4,1,2,1,0.48,1.57040598146034,0.405928445001912,0.559172005984291,-0.580354353084823,0.471821869443101,3
9,1,155," S4-20.jpg",2," [240 168 10]"," orange","incongruent",273,1,0,3.9684,3,0.3251,3.9693,106,53,85,0.7631,0,"group1",191,1,0,0,0,1,4,4,2,3,0.52,1.37836299079361,-0.172616048422437,0.559172005984291,-1.12362245167228,0.0528376135757274,2
9,1,156," S4-20.jpg",2," [240 168 10]"," orange","incongruent",372,2,1,5.3671,3,0.223,5.3683,83,36,92,0.7631,0,"group1",175,1,0,0,0,1,4,2,3,2,0.52,1.68028772540419,0.736955772090875,0.559172005984291,-1.50058350752202,-0.237885784111056,3
9,1,157," S4-20.jpg",2," [181 10 240]"," purple","congruent",219,1,0,3.1917,4,0.5177,3.1924,96,30,129,0.7631,0,"group1",225,2,0,1,0,0,3,3,4,4,0.36,1.16055369020829,-0.828783560877624,1.71013438496862,-0.658359355074281,0.41166212916484,1
9,1,158," S4-20.jpg",2," [240 168 10]"," orange","incongruent",251,1,0,3.6468,4,0.0801,3.6477,88,86,83,0.7631,0,"group1",171,1,0,1,0,0,3,2,2,2,0.52,1.29385007072861,-0.427217814188876,1.71013438496862,-2.52447942490782,-1.02754427896279,2
9,1,160," S3-12.jpg",1," [181 10 240]"," purple","incongruent",315,1,1,4.4772,2,0.2203,4.4781,103,79,96,0.7703,0,"group1",199,2,0,0,0,1,4,4,3,3,0.64,1.49899785103298,0.190805880512306,-0.591790373000041,-1.51276502517384,-0.24728052700495,3
9,1,161," S3-12.jpg",1," [181 10 240]"," purple","incongruent",450,2,0,6.4768,3,0.1833,6.4775,97,44,91,0.7703,0,"group1",188,2,0,0,0,1,4,3,3,3,0.64,1.8682265612309,1.30313617883539,0.559172005984291,-1.69663112413648,-0.389083443195687,4
9,1,162," S4-20.jpg",2," [10 240 94]"," green","neutral",280,2,1,3.9668,4,0.1823,3.9678,77,39,143,0.7631,0,"group1",220,3,0,0,0,1,4,1,4,4,0.5,1.37795972432983,-0.173830920109194,1.71013438496862,-1.70210159729752,-0.393302432185803,2
9,1,163," S4-20.jpg",2," [10 240 94]"," green","neutral",400,1,0,5.8049,1,0.3342,5.8059,102,30,76,0.7631,0,"group1",178,3,0,0,0,1,4,3,1,2,0.5,1.75870238847262,0.973186062842249,-1.74275275198437,-1.09601566282084,0.0741287770250086,4
9,1,164," S3-12.jpg",1," [181 10 240]"," purple","incongruent",207,1,1,3.0178,4,2e-04,3.0185,95,48,87,0.7703,0,"group1",182,2,0,1,0,0,3,3,2,2,0.64,1.10452808909741,-0.997565055588554,1.71013438496862,-8.51719319141624,-5.64930050690097,1
9,1,165," S4-20.jpg",2," [181 10 240]"," purple","congruent",265,1,0,3.8215,2,0.164,3.8223,76,28,80,0.7631,0,"group1",156,2,0,0,0,1,4,1,1,1,0.36,1.3406430157008,-0.286250416468281,-0.591790373000041,-1.80788885115794,-0.474888658128767,2
9,1,166," S3-12.jpg",1," [181 10 240]"," purple","incongruent",328,2,0,4.7088,2,0.6493,4.7098,78,27,94,0.7703,0,"group1",172,2,0,0,0,1,4,1,3,2,0.64,1.54943309849707,0.342745998678263,-0.591790373000041,-0.431860419467696,0.586344736585788,3
9,1,168," S4-20.jpg",2," [240 168 10]"," orange","incongruent",157,1,0,2.3042,3,0.2293,2.3052,80,62,90,0.7631,0,"group1",170,1,0,1,0,0,3,1,3,2,0.52,0.834733544621816,-1.81034217138113,0.559172005984291,-1.47272408911828,-0.216399785358067,1
9,1,169," S4-20.jpg",2," [240 168 10]"," orange","incongruent",191,1,0,2.7464,4,0.415,2.7474,101,24,85,0.7631,0,"group1",186,1,0,1,0,0,3,3,2,3,0.52,1.01029096316135,-1.281461750267,1.71013438496862,-0.879476758751439,0.241129916653404,1
9,1,170," S3-12.jpg",1," [181 10 240]"," purple","incongruent",344,1,1,4.9483,2,0.2308,4.9494,77,49,100,0.7703,0,"group1",177,2,0,0,0,1,4,1,3,2,0.64,1.59904408325008,0.492202961114473,-0.591790373000041,-1.46620374434819,-0.211371104659538,3
9,1,171," S4-20.jpg",2," [181 10 240]"," purple","congruent",411,2,1,5.9003,2,0.3503,5.9011,84,41,98,0.7631,0,"group1",182,2,0,0,0,1,4,2,3,2,0.36,1.77500319707661,1.02229352062273,-0.591790373000041,-1.0489653487787,0.110415356098089,4
9,1,172," S3-12.jpg",1," [240 168 10]"," orange","congruent",365,2,0,5.2116,2,1.4307,5.213,140,26,101,0.7703,0,"group1",241,1,0,0,0,1,4,4,3,4,0.48,1.65088691034664,0.648383522748782,-0.591790373000041,0.358163834990151,1.19563456095031,3
9,1,173," S4-20.jpg",2," [240 168 10]"," orange","incongruent",439,2,1,6.3021,2,0.4014,6.3031,78,58,95,0.7631,0,"group1",173,1,0,0,0,1,4,1,3,2,0.52,1.84088291118761,1.22076129960785,-0.591790373000041,-0.912796842619899,0.215432492892715,4
9,1,174," S3-12.jpg",1," [181 10 240]"," purple","incongruent",349,2,0,5.0556,3,0.9506,5.0566,101,50,109,0.7703,0,"group1",210,2,0,0,0,1,4,3,4,4,0.64,1.62049653979083,0.556830160258721,0.559172005984291,-0.050661914802228,0.880336178804268,3
9,1,175," S4-20.jpg",2," [181 10 240]"," purple","congruent",347,1,0,5.0299,2,0.5978,5.0307,77,47,127,0.7631,0,"group1",204,2,0,0,0,1,4,1,4,4,0.36,1.61540010319832,0.541476747377313,-0.591790373000041,-0.5144990291323,0.522611422470227,3
9,1,176," S3-12.jpg",1," [240 168 10]"," orange","congruent",283,1,1,4.0264,2,0.2458,4.0273,99,25,89,0.7703,0,"group1",188,1,0,0,0,1,4,3,3,3,0.48,1.39287267648001,-0.1289044881825,-0.591790373000041,-1.4032370818502,-0.162809371880146,2
9,1,177," S4-20.jpg",2," [10 240 94]"," green","neutral",305,2,1,4.3815,3,0.5031,4.3823,85,90,90,0.7631,0,"group1",175,3,0,0,0,1,4,2,3,2,0.5,1.47739113151377,0.125713952109177,0.559172005984291,-0.686966321484864,0.389599599512675,3
9,1,179," S4-20.jpg",2," [10 240 94]"," green","neutral",421,2,1,6.0359,2,0.2582,6.0366,109,38,134,0.7631,0,"group1",243,3,0,0,0,1,4,4,4,4,0.5,1.79772497350528,1.09074464496725,-0.591790373000041,-1.3540208005696,-0.124852335487745,4
9,1,180," S4-20.jpg",2," [240 168 10]"," orange","incongruent",201,1,0,2.8897,3,0.3437,2.8912,77,45,106,0.7631,0,"group1",183,1,0,1,0,0,3,1,4,2,0.52,1.06115269050773,-1.12823682817982,0.559172005984291,-1.06798609512635,0.0957459998902889,1
9,1,181," S3-12.jpg",1," [181 10 240]"," purple","incongruent",250,1,1,3.6052,2,0.2657,3.607,109,51,94,0.7703,0,"group1",203,2,0,1,0,0,3,4,3,3,0.64,1.28237724770012,-0.461780588722446,-0.591790373000041,-1.32538742621637,-0.10276943925741,2
9,1,182," S4-20.jpg",2," [181 10 240]"," purple","congruent",304,1,0,4.3516,1,0.2549,4.3528,84,29,79,0.7631,0,"group1",163,2,0,0,0,1,4,2,1,1,0.36,1.47054359356479,0.105085209762781,-1.74275275198437,-1.36688396760007,-0.134772786330291,3
9,1,183," S3-12.jpg",1," [181 10 240]"," purple","incongruent",226,1,1,3.2507,2,0.2511,3.2517,81,57,82,0.7703,0,"group1",163,2,0,0,0,1,4,2,2,1,0.64,1.17887035776509,-0.773603170715601,-0.591790373000041,-1.3819040128186,-0.146356684750505,1
9,1,184," S4-20.jpg",2," [10 240 94]"," green","neutral",280,2,1,4.0583,3,0.2558,4.0593,80,45,97,0.7631,0,"group1",177,3,0,0,0,1,4,1,3,2,0.5,1.40076416671445,-0.105130758122396,0.559172005984291,-1.36335938983739,-0.13205452881622,2
9,1,186," S3-12.jpg",1," [240 168 10]"," orange","congruent",290,1,1,4.2075,1,0.5185,4.2083,98,24,115,0.7703,0,"group1",213,1,0,0,0,1,4,3,4,4,0.48,1.43686864708282,0.00363680601806511,-1.74275275198437,-0.656815251312555,0.412852987172647,2
9,1,187," S3-12.jpg",1," [181 10 240]"," purple","incongruent",438,1,1,6.2926,1,0.1454,6.2941,84,34,88,0.7703,0,"group1",172,2,0,0,0,1,4,2,2,2,0.64,1.8393743398359,1.21621661070544,-1.74275275198437,-1.92826671388272,-0.567727588608554,4
9,1,188," S4-20.jpg",2," [240 168 10]"," orange","incongruent",382,2,1,5.512,2,0.0969,5.5128,90,25,84,0.7631,0,"group1",174,1,0,0,0,1,4,3,2,2,0.52,1.70692753371136,0.817210273171504,-0.591790373000041,-2.33407576008542,-0.880699400665204,4
9,1,190," S4-20.jpg",2," [240 168 10]"," orange","incongruent",336,1,0,4.8084,2,0.1755,4.8093,137,43,88,0.7631,0,"group1",225,1,0,0,0,1,4,4,2,4,0.52,1.57036438844796,0.405803142806846,-0.591790373000041,-1.74011623607622,-0.422620434075059,3
