"subID","block","trial","targetImg","targetIdx","cue_rgb","cue_string","congruent","respFrame","response","accuracy","RT","confResp","confRT","flickerDuration","noise1frames","signal1frames","noise2frames","coherence","catch_trial","signal2frames","totalNoise","cueIdx","firstNoiseRT","secondNoiseRT","firstSignalRT","secondSignalRT","respPeriod","firstNoise_quartile","secondNoise_quartile","totalNoise_quartile","accuracyFactor","cueCongChoice","cueLevel","logRT","zlogRT","zConf","logConfRT","zlogconfRT","rt_quartile","trial_quartile","noise1frames_direct","signal1frames_direct","noise2frames_direct","signal1Onset","noise2Onset","signal2Onset","signal1_target1","signal1_target2","signal2_target1","signal2_target2"
12,1,2," S1-15.jpg",1," [181 10 240]"," purple","congruent",232,1,1,3.1873,2,0.9072,3.1883,91,31,104,0.7725,0,308,195,1,0,0,0,1,"signal2",3,4,3,"correct",1,0.8,1.15917416341795,0.0209682443784488,-1.32854425250931,-0.0973923460086494,0.350117004373317,2,1,78,26,131,79,103,236,5,7,NA,NA
12,1,3," S2-19.jpg",2," [10 240 94]"," green","congruent",177,2,1,2.4846,3,1.1563,2.4861,89,27,80,0.7566,0,363,169,2,0,1,0,0,"noise2",2,1,1,"correct",1,0.8,0.91011168079744,-0.574947798291216,0.29456411028487,0.145225252152779,0.786310025390833,2,1,87,38,84,88,124,210,10,9,NA,NA
12,1,4," S2-19.jpg",2," [10 240 94]"," green","congruent",150,1,0,2.0945,2,0.7691,2.0954,139,31,85,0.7566,0,390,224,2,0,0,1,0,"signal1",4,2,4,"incorrect",0,0.8,0.739314861404953,-0.98360254083635,-1.32854425250931,-0.262534278919129,0.0532145572352261,1,1,78,28,80,79,105,187,5,8,NA,NA
12,1,5," S1-15.jpg",1," [240 168 10]"," orange","neutral",265,1,1,3.6761,3,1.5893,3.6771,138,25,81,0.7725,1,275,219,3,0,0,0,1,"signal2",4,1,4,"correct",NA,0.5,1.30185240760548,0.362345451241185,0.29456411028487,0.463293667720637,1.35815322278531,3,1,NA,NA,NA,NA,NA,NA,NA,NA,NA,NA
12,1,6," S1-15.jpg",1," [240 168 10]"," orange","neutral",208,2,0,2.8794,2,1.3194,2.8802,79,33,86,0.7725,1,332,165,3,0,0,0,1,"signal2",1,2,1,"incorrect",NA,0.5,1.05758193911012,-0.222105042447234,-1.32854425250931,0.277177087806633,1.02354124958408,2,1,79,33,86,80,111,199,10,6,90,81
12,1,7," S1-15.jpg",1," [10 240 94]"," green","incongruent",202,2,0,2.8291,3,0.5723,2.8301,96,27,76,0.7725,0,338,172,2,0,0,0,1,"signal2",3,1,2,"incorrect",1,0.2,1.03995863987427,-0.264271195409796,0.29456411028487,-0.55809194956708,-0.47815742163933,2,1,77,52,83,78,128,213,13,13,NA,NA
12,1,8," S2-19.jpg",2," [10 240 94]"," green","congruent",237,2,1,3.2849,3,0.7148,3.2859,94,51,88,0.7566,0,303,182,2,0,0,0,1,"signal2",3,2,2,"correct",1,0.8,1.18933621007292,0.0931350648980807,0.29456411028487,-0.335752495696864,-0.0784217107511789,3,1,77,26,84,78,102,188,4,9,81,96
12,1,9," S1-15.jpg",1," [10 240 94]"," green","incongruent",255,2,0,3.6147,2,1.2579,3.6154,86,58,90,0.7725,0,285,176,2,0,0,0,1,"signal2",2,3,2,"incorrect",1,0.2,1.2850088646152,0.322044971708125,-1.32854425250931,0.22944366386269,0.937723128592854,3,1,84,63,75,85,146,223,16,15,87,72
12,1,10," S2-19.jpg",2," [10 240 94]"," green","congruent",222,1,0,3.0759,3,0.9587,3.0768,127,36,113,0.7566,1,318,240,2,0,1,0,0,"noise2",4,4,4,"incorrect",0,0.8,1.12359754136202,-0.0641536880943267,0.29456411028487,-0.0421770788991862,0.449386448755257,2,1,127,36,113,128,162,277,9,9,NA,NA
12,1,11," S2-19.jpg",2," [10 240 94]"," green","congruent",170,1,0,2.3739,3,1.4938,2.3749,84,62,83,0.7566,0,370,167,2,0,1,0,0,"noise2",2,2,1,"incorrect",0,0.8,0.86453417230112,-0.683998218941094,0.29456411028487,0.401323208940829,1.24673887430503,2,1,78,23,116,79,100,218,6,5,NA,NA
12,1,12," S2-19.jpg",2," [10 240 94]"," green","congruent",204,1,0,2.8419,2,0.7701,2.843,77,38,78,0.7566,0,336,155,2,0,0,0,1,"signal2",1,1,1,"incorrect",0,0.8,1.04447284256746,-0.253470348263194,-1.32854425250931,-0.261234902436933,0.0555506571616262,2,1,96,27,76,97,122,200,7,6,74,97
12,1,13," S2-19.jpg",2," [10 240 94]"," green","congruent",220,2,1,3.1492,2,0.7458,3.1499,107,26,90,0.7566,0,320,197,2,0,1,0,0,"noise2",4,3,3,"correct",1,0.8,1.14714845232817,-0.00780491361590939,-1.32854425250931,-0.293297811237417,-0.0020940362088304,2,1,78,78,81,79,155,238,19,19,NA,NA
12,1,14," S2-19.jpg",2," [10 240 94]"," green","congruent",214,2,1,2.9741,3,1.1101,2.9751,104,38,102,0.7566,0,326,206,2,0,1,0,0,"noise2",4,3,4,"correct",1,0.8,1.08994147222048,-0.144680435132346,0.29456411028487,0.104450101356464,0.71300192101971,2,1,77,24,91,78,100,193,7,5,81,93
12,1,15," S1-15.jpg",1," [181 10 240]"," purple","congruent",188,1,1,2.6114,2,0.7545,2.6124,81,53,77,0.7725,0,352,158,1,0,1,0,0,"noise2",1,1,1,"correct",1,0.8,0.959886475991801,-0.45585479534339,-1.32854425250931,-0.281700000774234,0.0187572294102382,2,1,95,50,83,96,144,229,15,10,NA,NA
12,1,16," S2-19.jpg",2," [10 240 94]"," green","congruent",290,2,1,4.0353,3,0.6761,4.0361,95,81,82,0.7566,0,250,177,2,0,0,0,1,"signal2",3,2,2,"correct",1,0.8,1.39508064840051,0.585406763949123,0.29456411028487,-0.391414284885505,-0.178493940323243,3,1,131,88,76,132,218,296,20,24,NA,NA
12,1,17," S2-19.jpg",2," [10 240 94]"," green","congruent",134,2,1,1.8791,3,0.5422,1.8801,103,31,76,0.7566,0,406,179,2,0,0,1,0,"signal1",3,1,2,"correct",1,0.8,0.63079293881297,-1.24325607826797,0.29456411028487,-0.612120341917572,-0.575293028696161,1,1,80,39,127,81,118,247,9,10,NA,NA
12,1,18," S1-15.jpg",1," [240 168 10]"," orange","neutral",192,2,0,2.6836,3,0.6158,2.6846,103,41,76,0.7725,0,348,179,3,0,1,0,0,"noise2",3,1,2,"incorrect",NA,0.5,0.987159176706596,-0.390601130030667,0.29456411028487,-0.484833043491737,-0.34644799990076,2,1,113,32,78,114,144,224,7,9,NA,NA
12,1,19," S1-15.jpg",1," [240 168 10]"," orange","neutral",170,1,1,2.3654,2,0.3104,2.3661,79,24,79,0.7725,0,370,158,3,0,1,0,0,"noise2",1,1,1,"correct",NA,0.5,0.86094714083488,-0.692580682159975,-1.32854425250931,-1.16989349067307,-1.57809231713127,2,1,93,29,101,94,121,224,9,5,NA,NA
12,1,20," S1-15.jpg",1," [240 168 10]"," orange","neutral",280,1,1,3.9098,2,1.2857,3.9113,110,41,89,0.7725,0,260,199,3,0,0,0,1,"signal2",4,2,3,"correct",NA,0.5,1.36348622179388,0.509812778553398,-1.32854425250931,0.251303317108066,0.977023773969584,3,1,NA,NA,NA,NA,NA,NA,NA,NA,NA,NA
12,1,21," S1-15.jpg",1," [181 10 240]"," purple","congruent",143,1,1,2.0488,3,0.6234,2.0495,82,29,94,0.7725,0,397,176,1,0,1,0,0,"noise2",2,3,2,"correct",1,0.8,0.717254255903178,-1.03638555572962,0.29456411028487,-0.4725669116489,-0.324395184502076,1,1,84,35,82,85,118,202,8,9,NA,NA
12,1,22," S1-15.jpg",1," [181 10 240]"," purple","congruent",100,1,1,1.4059,3,0.8163,1.4068,93,26,80,0.7725,0,440,173,1,0,0,1,0,"signal1",3,1,2,"correct",1,0.8,0.340677667103725,-1.93739653176384,0.29456411028487,-0.202973344524827,0.160296912781383,1,1,77,38,78,78,114,194,8,11,NA,NA
12,1,23," S2-19.jpg",2," [181 10 240]"," purple","incongruent",51,1,0,0.6898,3,0.6251,0.6908,136,74,93,0.7566,0,489,229,1,1,0,0,0,"noise1",4,3,4,"incorrect",1,0.2,-0.371353578479397,-3.64102863909957,0.29456411028487,-0.46984364204437,-0.319499120882426,1,1,98,84,76,99,181,259,NA,NA,NA,NA
12,1,24," S1-15.jpg",1," [240 168 10]"," orange","neutral",168,2,0,2.3645,3,0.6829,2.3655,82,53,85,0.7725,0,372,167,3,0,1,0,0,"noise2",2,2,1,"incorrect",NA,0.5,0.860566583101793,-0.693491218568036,0.29456411028487,-0.381406843015094,-0.160501938361343,2,1,92,32,140,93,123,265,5,10,NA,NA
12,1,25," S1-15.jpg",1," [240 168 10]"," orange","neutral",149,2,0,2.0832,3,1.4792,2.084,86,87,102,0.7725,0,391,188,3,0,0,1,0,"signal1",2,3,3,"incorrect",NA,0.5,0.733905173032113,-0.996545959906537,0.29456411028487,0.391501401090778,1.22908061674072,1,1,132,50,76,133,181,259,11,13,NA,NA
12,1,26," S1-15.jpg",1," [240 168 10]"," orange","neutral",188,2,0,2.6559,3,1.3741,2.6566,76,49,83,0.7725,0,352,159,3,0,1,0,0,"noise2",1,2,1,"incorrect",NA,0.5,0.976783580302976,-0.41542616302692,0.29456411028487,0.317798971355592,1.09657380055696,2,1,75,34,79,76,108,189,9,8,NA,NA
12,1,27," S1-15.jpg",1," [181 10 240]"," purple","congruent",171,1,1,2.402,3,1.3334,2.4028,116,35,77,0.7725,0,369,193,1,0,1,0,0,"noise2",4,1,3,"correct",1,0.8,0.876301723657792,-0.655842743405003,0.29456411028487,0.287732071201823,1.04251765578391,2,1,115,57,88,116,171,261,13,15,NA,NA
12,1,28," S1-15.jpg",1," [181 10 240]"," purple","congruent",255,1,1,3.5651,3,0.709,3.566,80,57,82,0.7725,0,285,162,1,0,0,0,1,"signal2",1,2,1,"correct",1,0.8,1.27119210396374,0.288986482756651,0.29456411028487,-0.34389975245001,-0.093069356111988,3,1,93,29,98,94,121,221,9,5,82,78
12,1,29," S1-15.jpg",1," [10 240 94]"," green","incongruent",144,2,0,2.0353,4,1.4305,2.0361,99,61,85,0.7725,0,396,184,2,0,0,1,0,"signal1",3,2,2,"incorrect",1,0.2,0.710643228176696,-1.0522033434562,1.91767247307905,0.358024033508028,1.16889292132088,1,1,100,55,77,101,154,233,18,9,NA,NA
12,1,30," S2-19.jpg",2," [240 168 10]"," orange","neutral",265,1,0,3.6781,2,0.4161,3.6791,90,91,86,0.7566,1,275,176,3,0,1,0,0,"noise2",3,2,2,"incorrect",NA,0.5,1.30239631450203,0.363646822856704,-1.32854425250931,-0.876829662993241,-1.05120392438752,3,1,90,91,86,91,180,268,18,27,NA,NA
12,1,31," S1-15.jpg",1," [181 10 240]"," purple","congruent",141,1,1,1.9634,3,0.5593,1.9643,128,44,95,0.7725,0,399,223,1,0,0,1,0,"signal1",4,3,4,"correct",1,0.8,0.674677664276284,-1.13825587246986,0.29456411028487,-0.581069277154595,-0.519467491524031,1,1,102,42,116,103,143,261,13,7,NA,NA
12,1,32," S2-19.jpg",2," [181 10 240]"," purple","incongruent",178,2,1,2.5138,2,1.5205,2.5147,78,143,99,0.7566,0,362,177,1,0,0,1,0,"signal1",1,3,2,"correct",0,0.2,0.9217955525086,-0.546992537748087,-1.32854425250931,0.419039228135282,1.27858983644212,2,1,80,47,104,81,126,232,13,10,NA,NA
12,1,33," S2-19.jpg",2," [10 240 94]"," green","congruent",176,2,1,2.441,3,0.5811,2.442,95,24,83,0.7566,0,364,178,2,0,1,0,0,"noise2",3,2,2,"correct",1,0.8,0.892407791410823,-0.61730677420815,0.29456411028487,-0.542832419901077,-0.450722889293941,2,1,93,26,80,94,118,200,5,8,NA,NA
12,1,34," S2-19.jpg",2," [10 240 94]"," green","congruent",259,2,1,3.6041,3,0.4652,3.6049,94,62,85,0.7566,0,281,179,2,0,0,0,1,"signal2",3,2,2,"correct",1,0.8,1.28207208630899,0.31501832808029,0.29456411028487,-0.765287858337628,-0.850667124455533,3,1,NA,NA,NA,NA,NA,NA,NA,NA,NA,NA
12,1,35," S1-15.jpg",1," [181 10 240]"," purple","congruent",NA,2,0,7.849,1,1.7195,7.4651,87,23,85,0.7725,1,NA,172,1,NA,NA,NA,NA,NA,2,2,2,"incorrect",0,0.8,2.06038613514468,2.177241104696,-2.9516526153035,0.542033550890184,1.49971668633686,4,1,87,23,85,88,109,196,5,6,92,81
12,1,36," S1-15.jpg",1," [181 10 240]"," purple","congruent",212,1,1,2.9476,2,1.8596,2.949,91,27,112,0.7725,0,328,203,1,0,1,0,0,"noise2",3,4,3,"correct",1,0.8,1.08099127991071,-0.16609499394608,-1.32854425250931,0.620361410834293,1.64053938888511,2,1,101,38,105,102,138,245,9,10,NA,NA
12,1,37," S2-19.jpg",2," [181 10 240]"," purple","incongruent",169,1,0,2.3603,3,0.4031,2.3613,120,26,89,0.7566,0,371,209,1,0,1,0,0,"noise2",4,2,4,"incorrect",1,0.2,0.858788729602696,-0.697744976141161,0.29456411028487,-0.908570608859017,-1.10826977275164,2,1,80,39,77,81,118,197,14,5,NA,NA
12,1,38," S1-15.jpg",1," [181 10 240]"," purple","congruent",284,2,0,3.9458,2,1.3652,3.9473,84,33,108,0.7725,1,256,192,1,0,0,0,1,"signal2",2,4,3,"incorrect",0,0.8,1.37265172207873,0.531742491135431,-1.32854425250931,0.311300938050415,1.08489123177573,3,1,84,33,108,85,116,226,10,6,86,72
12,1,39," S1-15.jpg",1," [240 168 10]"," orange","neutral",254,1,1,3.5178,2,2.6018,3.5186,76,32,102,0.7725,0,286,178,3,0,0,0,1,"signal2",1,3,2,"correct",NA,0.5,1.25783579421609,0.257029685547591,-1.32854425250931,0.956203513185322,2.24433722679751,3,1,79,35,136,80,113,251,8,9,75,70
12,1,40," S2-19.jpg",2," [10 240 94]"," green","congruent",290,2,1,4.0139,1,1.9562,4.0147,78,28,79,0.7566,0,250,157,2,0,0,0,1,"signal2",1,1,1,"correct",1,0.8,1.38976333725864,0.572684370034274,-2.9516526153035,0.671003815874256,1.731587457176,3,1,75,28,103,76,102,207,5,9,85,82
12,1,41," S1-15.jpg",1," [240 168 10]"," orange","neutral",266,2,0,3.6929,3,1.1852,3.6939,102,37,106,0.7725,0,274,208,3,0,0,0,1,"signal2",3,4,4,"incorrect",NA,0.5,1.30641205724764,0.37325503642692,0.29456411028487,0.169911536717273,0.830692564512007,3,1,81,35,120,82,115,237,10,7,81,71
12,1,42," S2-19.jpg",2," [10 240 94]"," green","congruent",315,2,1,4.3429,3,0.4705,4.3438,76,27,94,0.7566,1,225,170,2,0,0,0,1,"signal2",1,3,1,"correct",1,0.8,1.46854232772922,0.761173875771168,0.29456411028487,-0.753959319956703,-0.830299972948243,4,1,76,27,94,77,102,198,5,8,78,94
12,1,43," S1-15.jpg",1," [181 10 240]"," purple","congruent",220,1,1,3.0686,2,1.1491,3.0701,141,54,84,0.7725,0,320,225,1,0,1,0,0,"noise2",4,2,4,"correct",1,0.8,1.12122143152897,-0.0698388557428678,-1.32854425250931,0.138979027281451,0.775080173487153,2,1,99,34,110,100,132,244,8,9,NA,NA
12,1,44," S1-15.jpg",1," [181 10 240]"," purple","congruent",157,2,0,2.1934,2,0.9166,2.1948,112,27,96,0.7725,0,383,208,1,0,1,0,0,"noise2",4,3,4,"incorrect",0,0.8,0.785452851343971,-0.87321109170314,-1.32854425250931,-0.0870841069071134,0.368649798322081,1,1,80,41,85,81,120,207,10,10,NA,NA
12,1,45," S1-15.jpg",1," [181 10 240]"," purple","congruent",512,1,1,7.0839,2,0.7944,7.0848,89,40,123,0.7725,0,28,212,1,0,0,0,1,"signal2",2,4,4,"correct",1,0.8,1.95782460350249,1.93184861754458,-1.32854425250931,-0.230168166251174,0.111404369393184,4,1,118,30,93,119,147,242,8,6,82,68
12,1,46," S2-19.jpg",2," [10 240 94]"," green","congruent",433,2,1,6.0199,3,0.917,6.0207,82,35,79,0.7566,0,107,161,2,0,0,0,1,"signal2",2,1,1,"correct",1,0.8,1.79507064788708,1.54243752624447,0.29456411028487,-0.0866478067256722,0.369434205948138,4,1,NA,NA,NA,NA,NA,NA,NA,NA,NA,NA
12,1,47," S1-15.jpg",1," [240 168 10]"," orange","neutral",368,1,1,5.0965,3,1.1011,5.0975,75,28,103,0.7725,0,172,178,3,0,0,0,1,"signal2",1,3,2,"correct",NA,0.5,1.62855402962633,1.14402375011635,0.29456411028487,0.0963096801374084,0.698366565007601,4,1,NA,NA,NA,NA,NA,NA,NA,NA,NA,NA
12,1,48," S2-19.jpg",2," [10 240 94]"," green","congruent",226,2,1,3.1646,3,0.9108,3.1656,76,30,80,0.7566,0,314,156,2,0,0,0,1,"signal2",1,1,1,"correct",1,0.8,1.15202666530275,0.00386687789809145,0.29456411028487,-0.0934319447925524,0.357237260216182,2,1,80,57,82,81,136,220,18,10,70,91
12,1,49," S2-19.jpg",2," [10 240 94]"," green","congruent",288,2,1,3.9843,4,0.9658,3.9853,106,64,100,0.7566,0,252,206,2,0,0,0,1,"signal2",4,3,4,"correct",1,0.8,1.38236163809218,0.554974792783222,1.91767247307905,-0.0347985055426955,0.46265210725471,3,1,77,57,114,78,133,249,12,16,59,87
12,1,50," S1-15.jpg",1," [181 10 240]"," purple","congruent",385,1,1,5.3285,4,1.278,5.33,81,31,78,0.7725,0,155,159,1,0,0,0,1,"signal2",1,1,1,"correct",1,0.8,1.67306977267887,1.25053375177241,1.91767247307905,0.245296355955343,0.966224085273475,4,1,79,86,107,80,164,273,19,24,78,56
12,1,51," S2-19.jpg",2," [10 240 94]"," green","congruent",375,1,0,5.2139,3,1.3095,5.215,116,36,97,0.7566,0,165,213,2,0,0,0,1,"signal2",4,3,4,"incorrect",0,0.8,1.65132813619428,1.1985139138637,0.29456411028487,0.26964538496563,1.010000285365,4,1,81,40,87,82,120,209,12,8,77,89
12,1,52," S1-15.jpg",1," [240 168 10]"," orange","neutral",410,2,0,5.6696,2,1.3153,5.6706,105,29,134,0.7725,0,130,239,3,0,0,0,1,"signal2",4,4,4,"incorrect",NA,0.5,1.73511856851391,1.39899397941244,-1.32854425250931,0.274064776492596,1.01794574256108,4,1,79,48,101,80,126,229,14,10,88,68
12,1,53," S1-15.jpg",1," [10 240 94]"," green","incongruent",468,1,1,6.4953,3,1.4732,6.4963,81,55,108,0.7725,0,72,189,2,0,0,0,1,"signal2",1,4,3,"correct",0,0.2,1.87107883843231,1.72429751432308,0.29456411028487,0.387436905588773,1.22177321371074,4,1,102,37,106,103,138,246,11,7,78,70
12,1,54," S1-15.jpg",1," [181 10 240]"," purple","congruent",430,2,0,6.0474,3,0.9639,6.0481,86,35,95,0.7725,0,110,181,1,0,0,0,1,"signal2",2,3,2,"incorrect",0,0.8,1.79962842760675,1.55334263738497,0.29456411028487,-0.0367677241922146,0.459111723381953,4,1,75,30,96,76,104,202,8,7,92,78
12,1,55," S1-15.jpg",1," [10 240 94]"," green","incongruent",325,2,0,4.5734,3,0.6541,4.5742,90,43,80,0.7725,0,215,170,2,0,0,0,1,"signal2",3,1,1,"incorrect",1,0.2,1.52025691078286,0.884908086389271,0.29456411028487,-0.42449503401497,-0.237968570398111,4,1,99,30,76,100,128,206,7,8,86,82
12,1,56," S1-15.jpg",1," [240 168 10]"," orange","neutral",342,2,0,4.8114,1,1.7875,4.8122,84,25,120,0.7725,0,198,204,3,0,0,0,1,"signal2",2,4,3,"incorrect",NA,0.5,1.5709881020589,1.00628939772551,-2.9516526153035,0.580817995586026,1.5694457753583,4,1,94,33,82,95,126,210,7,9,89,77
12,1,57," S1-15.jpg",1," [240 168 10]"," orange","neutral",92,1,1,1.2914,2,1.2716,1.2923,76,24,78,0.7725,0,448,154,3,0,0,1,0,"signal1",1,1,1,"correct",NA,0.5,0.25572690121023,-2.14065285403436,-1.32854425250931,0.240275950054511,0.957198087022675,1,1,103,41,76,104,143,221,NA,NA,NA,NA
12,1,58," S2-19.jpg",2," [10 240 94]"," green","congruent",141,2,1,1.9779,2,1.5427,1.9786,78,56,86,0.7566,0,399,164,2,0,1,0,0,"noise2",1,2,1,"correct",1,0.8,0.682035675805227,-1.12065082386474,-1.32854425250931,0.433534128035757,1.30464966979653,1,1,85,43,80,86,127,209,12,9,NA,NA
12,1,59," S1-15.jpg",1," [240 168 10]"," orange","neutral",170,1,1,2.3504,3,0.4137,2.3513,83,33,97,0.7725,0,370,180,3,0,1,0,0,"noise2",2,3,2,"correct",NA,0.5,0.854585526437476,-0.707801714395759,0.29456411028487,-0.882614205514771,-1.06160373502282,2,1,133,34,105,134,166,273,9,8,NA,NA
12,1,60," S2-19.jpg",2," [181 10 240]"," purple","incongruent",165,2,1,2.3104,3,0.3134,2.3114,118,30,93,0.7566,0,375,211,1,0,1,0,0,"noise2",4,3,4,"correct",0,0.2,0.83742066971637,-0.748870980961364,0.29456411028487,-1.16027494906022,-1.56079950426159,1,1,87,51,86,88,137,225,8,17,NA,NA
12,1,61," S2-19.jpg",2," [10 240 94]"," green","congruent",143,2,1,2.0225,3,1.2793,2.0237,82,37,84,0.7566,0,397,166,2,0,1,0,0,"noise2",2,2,1,"correct",1,0.8,0.70433436995051,-1.06729814933927,0.29456411028487,0.246313053340852,0.968051967122964,1,1,80,24,130,81,103,235,6,5,NA,NA
12,1,62," S1-15.jpg",1," [240 168 10]"," orange","neutral",213,2,0,2.9608,3,0.6516,2.9622,106,48,77,0.7725,0,327,183,3,0,1,0,0,"noise2",4,1,2,"incorrect",NA,0.5,1.08545950208981,-0.155404161466117,0.29456411028487,-0.428324402254247,-0.244853246998394,2,1,99,61,85,100,159,246,16,14,NA,NA
12,1,63," S1-15.jpg",1," [181 10 240]"," purple","congruent",272,2,0,3.7641,3,0.8674,3.7651,80,23,128,0.7725,0,268,208,1,0,0,0,1,"signal2",1,4,4,"incorrect",0,0.8,1.32550878885163,0.418946577784877,0.29456411028487,-0.142255047580871,0.26946004676559,3,1,124,45,110,125,168,280,13,9,NA,NA
12,1,64," S1-15.jpg",1," [10 240 94]"," green","incongruent",342,2,0,4.7632,3,0.6774,4.7641,79,47,91,0.7725,0,198,170,2,0,0,0,1,"signal2",1,3,1,"incorrect",1,0.2,1.56091971127937,0.982199396187511,0.29456411028487,-0.389493338598466,-0.175040343508727,4,1,84,82,195,85,165,362,17,23,NA,NA
12,1,65," S1-15.jpg",1," [181 10 240]"," purple","congruent",141,1,1,1.9648,3,0.5617,1.9658,109,45,91,0.7725,0,399,200,1,0,0,1,0,"signal1",4,3,3,"correct",1,0.8,0.675390458970686,-1.13655041370684,0.29456411028487,-0.57678737944375,-0.511769229269623,1,1,91,31,104,92,121,227,9,6,NA,NA
12,1,66," S1-15.jpg",1," [181 10 240]"," purple","congruent",108,1,1,1.5375,3,0.6001,1.5384,80,39,77,0.7725,0,432,157,1,0,0,1,0,"signal1",1,1,1,"correct",1,0.8,0.430157720698536,-1.7233032694023,0.29456411028487,-0.51065897098667,-0.392879460025506,1,1,135,32,88,136,166,256,NA,NA,NA,NA
12,1,67," S1-15.jpg",1," [181 10 240]"," purple","congruent",323,1,1,4.4811,3,0.9889,4.4826,118,30,83,0.7725,0,217,201,1,0,0,0,1,"signal2",4,2,3,"correct",1,0.8,1.49986855200222,0.836126150413793,0.29456411028487,-0.0111620647061919,0.505147171968509,4,1,141,54,84,142,194,280,16,11,75,56
12,1,68," S1-15.jpg",1," [181 10 240]"," purple","congruent",404,2,0,5.6112,3,0.6502,5.6123,85,28,91,0.7725,0,136,176,1,0,0,0,1,"signal2",2,3,2,"incorrect",0,0.8,1.72476460040378,1.37422069506548,0.29456411028487,-0.430475271112332,-0.24872021292391,4,1,75,25,135,76,99,236,8,4,88,65
12,1,69," S2-19.jpg",2," [10 240 94]"," green","congruent",198,2,1,2.7443,3,0.3641,2.7451,78,28,80,0.7566,0,342,158,2,0,0,0,1,"signal2",1,1,1,"correct",1,0.8,1.00952603333367,-0.337085367448002,0.29456411028487,-1.01032672380075,-1.2912132505529,2,1,104,67,77,105,170,249,15,18,NA,NA
12,1,70," S2-19.jpg",2," [10 240 94]"," green","congruent",209,1,0,2.9159,3,0.7283,2.9168,113,61,87,0.7566,0,331,200,2,0,1,0,0,"noise2",4,2,3,"incorrect",0,0.8,1.07017852000556,-0.191966000390791,0.29456411028487,-0.317042227758268,-0.0447832263294786,2,2,113,61,87,114,173,262,16,14,NA,NA
12,1,71," S2-19.jpg",2," [10 240 94]"," green","congruent",311,1,0,4.3412,3,0.9787,4.3421,114,25,79,0.7566,0,229,193,2,0,0,0,1,"signal2",4,1,3,"incorrect",0,0.8,1.46815080758972,0.76023711030693,0.29456411028487,-0.0215301185503632,0.486506839351943,4,2,83,33,97,84,115,214,5,11,77,87
12,1,73," S1-15.jpg",1," [10 240 94]"," green","incongruent",205,2,0,2.8546,1,1.9669,2.8555,96,75,82,0.7725,1,335,178,2,0,1,0,0,"noise2",3,2,2,"incorrect",1,0.2,1.04893172821353,-0.242801854715047,-2.9516526153035,0.67645869927371,1.74139458612022,2,2,96,75,82,97,170,254,19,18,NA,NA
12,1,74," S1-15.jpg",1," [240 168 10]"," orange","neutral",254,1,1,3.5534,2,0.8439,3.5543,106,25,87,0.7725,0,286,193,3,0,0,0,1,"signal2",4,2,3,"correct",NA,0.5,1.26790489161967,0.281121377780259,-1.32854425250931,-0.169721274818216,0.220079553654618,3,2,86,33,142,87,118,262,10,6,NA,NA
12,1,75," S2-19.jpg",2," [10 240 94]"," green","congruent",265,2,1,3.6902,3,0.3556,3.6915,131,88,76,0.7566,0,275,207,2,0,1,0,0,"noise2",4,1,4,"correct",1,0.8,1.30568065712564,0.371505061634556,0.29456411028487,-1.03394877534239,-1.33368244529665,3,2,88,29,78,89,116,196,7,7,82,91
12,1,76," S2-19.jpg",2," [10 240 94]"," green","congruent",291,2,1,4.0727,3,0.7735,4.0736,87,34,89,0.7566,0,249,176,2,0,0,0,1,"signal2",2,2,2,"correct",1,0.8,1.40430617017158,0.607480086143354,0.29456411028487,-0.256829608969016,0.0634707679895334,3,2,77,32,133,78,108,243,3,13,71,78
12,1,77," S2-19.jpg",2," [181 10 240]"," purple","incongruent",367,1,0,5.123,3,2.1331,5.1243,101,47,86,0.7566,1,173,187,1,0,0,0,1,"signal2",3,2,3,"incorrect",1,0.2,1.63374020495707,1.15643238367355,0.29456411028487,0.757576320715635,1.88723289555302,4,2,101,47,86,102,147,235,11,12,69,84
12,1,78," S2-19.jpg",2," [10 240 94]"," green","congruent",422,1,0,5.8545,2,0.9922,5.8554,93,25,81,0.7566,0,118,174,2,0,0,0,1,"signal2",3,1,2,"incorrect",0,0.8,1.76721059630664,1.47577854368031,-1.32854425250931,-0.00783057911518856,0.51113672415033,4,2,86,23,105,87,108,215,6,5,80,83
12,1,79," S1-15.jpg",1," [181 10 240]"," purple","congruent",176,2,0,2.463,1,1.3111,2.464,107,36,90,0.7725,0,364,197,1,0,1,0,0,"noise2",4,3,3,"incorrect",0,0.8,0.901380119138401,-0.595839253380855,-2.9516526153035,0.270866479523219,1.01219564517426,2,2,NA,NA,NA,NA,NA,NA,NA,NA,NA,NA
12,1,80," S2-19.jpg",2," [10 240 94]"," green","congruent",449,2,1,6.2093,3,0.9145,6.2103,102,31,125,0.7566,1,91,227,2,0,0,0,1,"signal2",3,4,4,"correct",1,0.8,1.82604816817478,1.61655547892582,0.29456411028487,-0.0893778111512167,0.364526034048022,4,2,102,31,125,103,132,259,10,5,64,77
12,1,81," S1-15.jpg",1," [240 168 10]"," orange","neutral",319,1,1,4.4221,3,0.6018,4.4231,94,40,95,0.7725,0,221,189,3,0,0,0,1,"signal2",3,3,3,"correct",NA,0.5,1.48661469638128,0.804414488710887,0.29456411028487,-0.507830114786192,-0.387793566250853,4,2,79,27,195,80,105,302,7,6,64,56
12,1,82," S2-19.jpg",2," [10 240 94]"," green","congruent",302,2,1,4.1994,3,0.6918,4.2002,80,41,79,0.7566,0,238,159,2,0,0,0,1,"signal2",1,1,1,"correct",1,0.8,1.43494165794141,0.680779679261406,0.29456411028487,-0.368458382479069,-0.137222389962811,3,2,88,36,88,89,123,213,11,6,69,95
12,1,83," S1-15.jpg",1," [240 168 10]"," orange","neutral",405,2,0,5.6571,3,0.6247,5.658,78,26,131,0.7725,0,135,209,3,0,0,0,1,"signal2",1,4,4,"incorrect",NA,0.5,1.73291139341885,1.3937130112221,0.29456411028487,-0.470483744482613,-0.320649936892531,4,2,82,26,117,83,107,226,5,7,87,71
12,1,84," S1-15.jpg",1," [181 10 240]"," purple","congruent",338,1,1,4.6998,2,0.9658,4.7009,195,35,108,0.7725,0,202,303,1,0,1,0,0,"noise2",4,4,4,"correct",1,0.8,1.54751995461911,0.950138646299749,-1.32854425250931,-0.0347985055426955,0.46265210725471,4,2,92,44,84,93,135,221,10,11,83,77
12,1,85," S2-19.jpg",2," [10 240 94]"," green","congruent",369,1,0,5.1286,3,2.4456,5.13,83,45,77,0.7566,0,171,160,2,0,0,0,1,"signal2",2,1,1,"incorrect",0,0.8,1.63483271745404,1.15904636919604,0.29456411028487,0.894290491594488,2.13302614247105,4,2,108,35,138,109,142,282,9,8,58,72
12,1,86," S1-15.jpg",1," [10 240 94]"," green","incongruent",228,2,0,3.1749,3,0.6081,3.1756,115,57,88,0.7725,0,312,203,2,0,1,0,0,"noise2",4,2,3,"incorrect",1,0.2,1.15527613578565,0.0116416803114097,0.29456411028487,-0.497415936856073,-0.369070308881327,2,2,84,25,82,85,108,192,4,8,98,77
12,1,87," S2-19.jpg",2," [10 240 94]"," green","congruent",264,2,1,3.6776,1,1.4363,3.6783,77,32,133,0.7566,0,276,210,2,0,0,0,1,"signal2",1,4,4,"correct",1,0.8,1.30226036550988,0.363321546305402,-2.9516526153035,0.36207036245564,1.1761676633885,3,2,114,46,89,115,159,250,4,18,71,75
12,1,88," S1-15.jpg",1," [181 10 240]"," purple","congruent",207,1,1,2.8956,2,0.8195,2.8963,79,35,136,0.7725,0,333,215,1,0,1,0,0,"noise2",1,4,4,"correct",1,0.8,1.06319234343685,-0.208681383014526,-1.32854425250931,-0.199060880798253,0.167330983621456,2,2,120,26,89,121,145,236,9,3,NA,NA
12,1,89," S2-19.jpg",2," [10 240 94]"," green","congruent",NA,2,1,7.758,1,0.674,7.4941,86,23,105,0.7566,0,NA,191,2,NA,NA,NA,NA,NA,2,4,3,"correct",1,0.8,2.04872456901778,2.14933921331294,-2.9516526153035,-0.39452516806983,-0.18408687976575,4,2,89,44,75,90,132,209,12,10,71,95
12,1,90," S1-15.jpg",1," [181 10 240]"," purple","congruent",223,1,1,3.1176,3,1.0039,3.1184,130,26,90,0.7725,0,317,220,1,0,1,0,0,"noise2",4,3,4,"correct",1,0.8,1.13706347504236,-0.0319346006379881,0.29456411028487,0.00389241471534385,0.532213052219934,2,2,85,24,76,86,108,186,8,4,97,81
12,1,91," S1-15.jpg",1," [240 168 10]"," orange","neutral",284,1,1,3.9419,3,1.0939,3.9428,93,28,94,0.7725,0,256,187,3,0,0,0,1,"signal2",3,3,3,"correct",NA,0.5,1.37166284057517,0.52937645693361,0.29456411028487,0.0897492921436082,0.686571891085561,3,2,77,25,84,78,101,187,7,5,93,84
12,1,92," S1-15.jpg",1," [181 10 240]"," purple","congruent",260,1,1,3.5999,3,0.549,3.6007,84,63,75,0.7725,0,280,159,1,0,0,0,1,"signal2",2,1,1,"correct",1,0.8,1.28090606729848,0.312228468174011,0.29456411028487,-0.599656837472606,-0.552885364546846,3,2,107,36,90,108,142,234,11,7,82,72
12,1,93," S1-15.jpg",1," [181 10 240]"," purple","congruent",423,2,0,5.8811,3,0.3274,5.8821,86,33,142,0.7725,0,117,228,1,0,0,0,1,"signal2",2,4,4,"incorrect",0,0.8,1.77174381924415,1.48662489936198,0.29456411028487,-1.1165726140451,-1.48222872588352,4,2,77,29,81,78,105,188,6,8,98,79
12,1,94," S1-15.jpg",1," [181 10 240]"," purple","congruent",358,1,1,4.9703,3,0.7271,4.9712,81,40,87,0.7725,0,182,168,1,0,0,0,1,"signal2",1,2,1,"correct",1,0.8,1.60348020045985,1.08403118562309,0.29456411028487,-0.318691259326126,-0.0477479579350515,4,2,78,33,81,79,110,193,9,7,97,77
12,1,95," S1-15.jpg",1," [10 240 94]"," green","incongruent",277,2,0,3.8719,3,0.8835,3.8728,78,40,93,0.7725,0,263,171,2,0,0,0,1,"signal2",1,3,2,"incorrect",1,0.2,1.35374534263454,0.486506393345625,0.29456411028487,-0.123863987222386,0.302524639928967,3,2,82,80,92,83,161,255,15,24,79,64
12,1,97," S1-15.jpg",1," [10 240 94]"," green","incongruent",375,2,0,5.2596,3,0.9185,5.2611,107,24,92,0.7725,0,165,199,2,0,0,0,1,"signal2",4,3,3,"incorrect",1,0.2,1.66005497823063,1.21939407661075,0.29456411028487,-0.0850133743269567,0.372372690258621,4,2,83,66,80,84,148,230,19,14,80,76
12,1,98," S1-15.jpg",1," [240 168 10]"," orange","neutral",404,2,0,5.6119,3,0.7823,5.6126,99,39,83,0.7725,0,136,182,3,0,0,0,1,"signal2",3,2,2,"incorrect",NA,0.5,1.72488934312208,1.37451915907444,0.29456411028487,-0.245516980291102,0.083809316042365,4,2,90,70,92,91,159,253,17,17,76,68
12,1,99," S2-19.jpg",2," [10 240 94]"," green","congruent",356,2,1,4.9085,3,1.4696,4.9093,78,25,103,0.7566,0,184,181,2,0,0,0,1,"signal2",1,3,2,"correct",1,0.8,1.59096839615044,1.05409498313979,0.29456411028487,0.384990254918779,1.21737447283124,4,2,111,45,96,112,155,253,9,13,69,75
12,1,100," S1-15.jpg",1," [10 240 94]"," green","incongruent",344,2,0,4.7522,3,2.598,4.7537,81,32,100,0.7725,0,196,181,2,0,0,0,1,"signal2",1,3,2,"incorrect",1,0.2,1.55860766871678,0.976667518243102,0.29456411028487,0.954741918248408,2.24170948043505,4,2,81,24,91,82,104,197,6,6,92,80
12,1,102," S2-19.jpg",2," [181 10 240]"," purple","incongruent",423,2,1,5.8897,3,0.8918,5.8906,108,68,80,0.7566,0,117,188,1,0,0,0,1,"signal2",4,1,3,"correct",0,0.2,1.77320506258025,1.49012112383168,0.29456411028487,-0.114513386788761,0.31933573146717,4,2,100,44,117,101,143,262,14,7,63,77
12,1,103," S2-19.jpg",2," [10 240 94]"," green","congruent",352,2,1,4.8952,3,0.5179,4.896,80,39,127,0.7566,0,188,207,2,0,0,0,1,"signal2",1,4,4,"correct",1,0.8,1.58825513316619,1.04760313047984,0.29456411028487,-0.657973105552291,-0.657729981511606,4,2,88,23,89,89,110,201,6,5,78,92
12,1,104," S1-15.jpg",1," [10 240 94]"," green","incongruent",305,2,0,4.2254,3,0.5179,4.2261,95,50,83,0.7725,0,235,178,2,0,0,0,1,"signal2",3,2,2,"incorrect",1,0.2,1.441113930884,0.695547686178878,0.29456411028487,-0.657973105552291,-0.657729981511606,4,2,80,37,112,81,116,230,11,7,84,72
12,1,105," S1-15.jpg",1," [181 10 240]"," purple","congruent",410,1,1,5.6845,3,0.5627,5.6855,79,59,90,0.7725,0,130,169,1,0,0,0,1,"signal2",1,3,1,"correct",1,0.8,1.73774317258702,1.40527370350564,0.29456411028487,-0.575008652542904,-0.508571323320818,4,2,85,24,89,86,108,199,6,6,96,75
12,1,106," S2-19.jpg",2," [10 240 94]"," green","congruent",318,2,1,4.4155,3,0.7779,4.4165,76,28,124,0.7566,0,222,200,2,0,0,0,1,"signal2",1,4,3,"correct",1,0.8,1.48512107792672,0.800840802343785,0.29456411028487,-0.251157297769409,0.0736688021678379,4,2,92,24,119,93,115,236,7,4,71,82
12,1,107," S1-15.jpg",1," [240 168 10]"," orange","neutral",261,1,1,3.6299,3,0.4714,3.6308,87,52,115,0.7725,0,279,202,3,0,0,0,1,"signal2",2,4,3,"correct",NA,0.5,1.28920509968793,0.33208503784873,0.29456411028487,-0.752048288480106,-0.826864201597142,3,2,143,31,109,144,173,284,10,5,NA,NA
12,1,108," S2-19.jpg",2," [10 240 94]"," green","congruent",215,2,1,3.0117,3,0.3664,3.0124,110,34,77,0.7566,0,325,187,2,0,1,0,0,"noise2",4,1,3,"correct",1,0.8,1.10250470338345,-0.11462118687057,0.29456411028487,-1.00402964618216,-1.27989197241459,2,2,91,28,86,92,118,206,7,7,79,89
12,1,109," S1-15.jpg",1," [181 10 240]"," purple","congruent",291,1,1,4.0921,3,0.5358,4.0928,85,53,79,0.7725,0,249,164,1,0,0,0,1,"signal2",2,1,1,"correct",1,0.8,1.40905828571844,0.618850172320935,0.29456411028487,-0.623994321871629,-0.596640809017584,3,2,95,85,82,96,179,263,22,20,78,61
12,1,110," S2-19.jpg",2," [10 240 94]"," green","congruent",194,1,0,2.7164,3,0.3644,2.7173,142,40,94,0.7566,0,346,236,2,0,1,0,0,"noise2",4,3,4,"incorrect",0,0.8,0.999307474257499,-0.361534667167458,0.29456411028487,-1.00950311359633,-1.28973251285733,2,2,86,48,79,87,133,214,12,11,NA,NA
12,1,111," S2-19.jpg",2," [10 240 94]"," green","congruent",342,2,1,4.7865,1,1.4198,4.7875,87,56,98,0.7566,0,198,185,2,0,0,0,1,"signal2",2,3,3,"correct",1,0.8,1.56579945540427,0.993874851188011,-2.9516526153035,0.350516016623148,1.15539454118818,4,2,108,39,118,109,146,266,13,6,61,77
12,1,112," S1-15.jpg",1," [240 168 10]"," orange","neutral",183,1,1,2.5543,3,0.9393,2.5552,123,72,99,0.7725,0,357,222,3,0,0,1,0,"signal1",4,3,4,"correct",NA,0.5,0.937778213515578,-0.508751836063919,0.29456411028487,-0.0626203619816673,0.412632241826992,2,2,90,55,107,91,144,253,17,10,NA,NA
12,1,113," S2-19.jpg",2," [181 10 240]"," purple","incongruent",197,2,1,2.7421,3,1.3217,2.743,83,29,98,0.7566,0,343,181,1,0,1,0,0,"noise2",2,3,2,"correct",0,0.2,1.00872405020524,-0.339004221733701,0.29456411028487,0.278918786781624,1.02667258442278,2,2,105,33,81,106,137,220,6,10,NA,NA
12,1,114," S1-15.jpg",1," [181 10 240]"," purple","congruent",190,2,0,2.6587,3,0.404,2.6594,94,33,82,0.7725,0,350,176,1,0,1,0,0,"noise2",3,2,2,"incorrect",0,0.8,0.977837281525671,-0.41290503878461,0.29456411028487,-0.906340401020987,-1.10426016626909,2,2,105,47,90,106,151,243,13,10,NA,NA
12,1,115," S1-15.jpg",1," [181 10 240]"," purple","congruent",160,1,1,2.2384,3,0.9305,2.2394,92,65,76,0.7725,0,380,168,1,0,1,0,0,"noise2",3,1,1,"correct",1,0.8,0.80576132492908,-0.824620291980249,0.29456411028487,-0.0720332028998316,0.39570925047119,1,2,77,68,106,78,144,252,22,12,NA,NA
12,1,116," S1-15.jpg",1," [181 10 240]"," purple","congruent",180,2,0,2.485,3,1.4412,2.4863,100,55,77,0.7725,0,360,177,1,0,1,0,0,"noise2",3,1,2,"incorrect",0,0.8,0.910272659548592,-0.574562634619307,0.29456411028487,0.365476099891801,1.18229071015975,2,2,109,40,101,110,148,251,7,13,NA,NA
12,1,117," S1-15.jpg",1," [181 10 240]"," purple","congruent",161,1,1,2.2731,4,1.1099,2.274,89,29,87,0.7725,0,379,176,1,0,1,0,0,"noise2",2,2,2,"correct",1,0.8,0.8211445386233,-0.787813849951124,1.91767247307905,0.104269921175797,0.712677981874617,1,2,101,41,76,102,141,219,12,8,NA,NA
12,1,118," S2-19.jpg",2," [181 10 240]"," purple","incongruent",169,2,1,2.3475,4,0.7892,2.3483,77,24,91,0.7566,0,371,168,1,0,1,0,0,"noise2",1,3,1,"correct",0,0.2,0.853350932100281,-0.710755650147072,1.91767247307905,-0.236735504833677,0.0995971992700974,2,2,96,73,88,97,168,258,14,22,NA,NA
12,1,119," S2-19.jpg",2," [10 240 94]"," green","congruent",153,2,1,2.1446,4,0.7878,2.1453,140,42,88,0.7566,0,387,228,2,0,0,1,0,"signal1",4,2,4,"correct",1,0.8,0.762953054803908,-0.927044931203794,1.91767247307905,-0.238511028445332,0.0964050523940065,1,2,89,59,96,90,147,245,14,15,NA,NA
12,1,120," S2-19.jpg",2," [10 240 94]"," green","congruent",118,2,1,1.6777,2,1.0852,1.6784,84,76,113,0.7566,1,422,197,2,0,0,1,0,"signal1",2,4,3,"correct",1,0.8,0.517423807794218,-1.5145072245939,-1.32854425250931,0.0817643018026396,0.672215978381713,1,2,84,76,113,85,159,274,20,17,NA,NA
12,1,121," S1-15.jpg",1," [181 10 240]"," purple","congruent",184,1,1,2.5839,2,1.4764,2.5846,81,24,91,0.7725,0,356,172,1,0,1,0,0,"noise2",1,3,2,"correct",1,0.8,0.9492998854811,-0.481184660588946,-1.32854425250931,0.389606692173706,1.22567419110322,2,2,90,31,80,91,120,202,6,9,NA,NA
12,1,122," S1-15.jpg",1," [240 168 10]"," orange","neutral",175,1,1,2.4286,2,0.8222,2.4296,100,43,100,0.7725,0,365,200,3,0,1,0,0,"noise2",3,3,3,"correct",NA,0.5,0.887314959637581,-0.629492070541667,-1.32854425250931,-0.195771604518359,0.173244649276218,2,2,103,49,82,104,151,235,14,10,NA,NA
12,1,123," S1-15.jpg",1," [10 240 94]"," green","incongruent",155,1,1,2.2061,2,1.4876,2.207,96,38,132,0.7725,0,385,228,2,0,1,0,0,"noise2",3,4,4,"correct",0,0.2,0.79122625071958,-0.859397444330538,-1.32854425250931,0.397164083068778,1.239261338905,1,2,80,23,128,81,102,232,5,6,NA,NA
12,1,124," S1-15.jpg",1," [10 240 94]"," green","incongruent",140,2,0,1.9553,3,1.7235,1.9563,120,66,99,0.7725,0,400,219,2,0,0,1,0,"signal1",4,3,4,"incorrect",1,0.2,0.670543634350092,-1.14814710429239,0.29456411028487,0.544357106974783,1.50389412010805,1,2,91,46,78,92,136,216,11,12,NA,NA
12,1,125," S2-19.jpg",2," [10 240 94]"," green","congruent",211,1,0,2.9366,2,2.7449,2.9375,119,29,81,0.7566,0,329,200,2,0,1,0,0,"noise2",4,1,3,"incorrect",0,0.8,1.0772524495467,-0.175040656782529,-1.32854425250931,1.00974464442541,2.34059680549786,2,2,134,37,102,135,170,274,8,10,NA,NA
12,1,126," S1-15.jpg",1," [10 240 94]"," green","incongruent",274,2,0,3.8031,3,0.8754,3.8042,82,25,143,0.7725,0,266,225,2,0,0,0,1,"signal2",2,4,4,"incorrect",1,0.2,1.33581652363065,0.443609242565929,0.29456411028487,-0.133074354225342,0.285965668782008,3,2,81,55,108,82,135,245,13,14,77,71
12,1,127," S1-15.jpg",1," [181 10 240]"," purple","congruent",143,1,1,2.0203,3,0.6768,2.021,76,30,78,0.7725,0,397,154,1,0,1,0,0,"noise2",1,1,1,"correct",1,0.8,0.70324601523736,-1.06990218679548,0.29456411028487,-0.390379470690124,-0.176633486945188,1,2,80,41,79,81,120,201,12,8,NA,NA
12,1,128," S1-15.jpg",1," [10 240 94]"," green","incongruent",222,2,0,3.1127,3,0.5348,3.1134,79,32,87,0.7725,1,318,166,2,0,0,0,1,"signal2",1,2,1,"incorrect",1,0.2,1.13549051675454,-0.0356981184038875,0.29456411028487,-0.625862433754349,-0.599999416851053,2,2,79,32,87,80,110,199,11,5,92,79
12,1,129," S2-19.jpg",2," [181 10 240]"," purple","incongruent",217,2,1,3.0307,3,1.0352,3.0315,96,73,88,0.7566,0,323,184,1,0,1,0,0,"noise2",3,2,2,"correct",0,0.2,1.10879361594186,-0.0995741037247247,0.29456411028487,0.034594644764499,0.587411432628453,2,2,121,60,92,122,180,274,14,16,NA,NA
12,1,130," S2-19.jpg",2," [10 240 94]"," green","congruent",263,2,1,3.6854,3,1.9034,3.6864,81,35,120,0.7566,0,277,201,2,0,0,0,1,"signal2",1,4,3,"correct",1,0.8,1.30437906791862,0.368390831497328,0.29456411028487,0.643641760656106,1.68239425100589,3,2,76,28,82,77,103,187,7,6,83,94
12,1,131," S1-15.jpg",1," [181 10 240]"," purple","congruent",277,2,0,3.8572,3,2.0685,3.8582,108,35,138,0.7725,0,263,246,1,0,1,0,0,"noise2",4,4,4,"incorrect",0,0.8,1.34994153165409,0.477405255499881,0.29456411028487,0.726823706919329,1.83194393210747,3,2,89,29,87,90,117,206,8,6,89,79
12,1,132," S1-15.jpg",1," [240 168 10]"," orange","neutral",188,2,0,2.6256,2,1.2039,2.6267,88,67,95,0.7725,0,352,183,3,0,1,0,0,"noise2",2,3,2,"incorrect",NA,0.5,0.965309441353689,-0.442879609261611,-1.32854425250931,0.185566286958844,0.85883764901079,2,2,110,34,77,111,143,222,7,9,NA,NA
12,1,133," S1-15.jpg",1," [181 10 240]"," purple","congruent",319,2,0,4.4214,3,1.0647,4.4226,77,36,110,0.7725,0,221,187,1,0,0,0,1,"signal2",1,4,3,"incorrect",0,0.8,1.48645638801887,0.804035714309167,0.29456411028487,0.0626930693384234,0.637928529465666,4,2,137,44,103,138,180,285,8,14,76,52
12,1,134," S2-19.jpg",2," [10 240 94]"," green","congruent",266,2,1,3.6888,3,0.8028,3.6895,87,37,85,0.7566,0,274,172,2,0,0,0,1,"signal2",2,2,2,"correct",1,0.8,1.30530120191036,0.370597163151073,0.29456411028487,-0.219649662059954,0.130315191009269,3,2,86,87,102,87,172,276,17,26,NA,NA
12,1,135," S1-15.jpg",1," [181 10 240]"," purple","congruent",211,1,1,2.9372,3,0.9224,2.938,109,40,101,0.7725,0,329,210,1,0,1,0,0,"noise2",4,3,4,"correct",1,0.8,1.07745674659532,-0.174551848161252,0.29456411028487,-0.0807763100272878,0.37999034821552,2,2,195,71,115,196,265,382,22,13,NA,NA
12,1,136," S1-15.jpg",1," [181 10 240]"," purple","congruent",210,1,1,2.92,3,0.8063,2.9208,76,28,82,0.7725,0,330,158,1,0,0,0,1,"signal2",1,2,1,"correct",1,0.8,1.07158361628019,-0.188604115442338,0.29456411028487,-0.215299397291161,0.138136367816334,2,2,142,40,94,143,181,277,13,6,NA,NA
12,1,137," S2-19.jpg",2," [181 10 240]"," purple","incongruent",200,1,0,2.815,3,0.4622,2.8158,77,57,114,0.7566,0,340,191,1,0,1,0,0,"noise2",1,4,3,"incorrect",1,0.2,1.03496226159165,-0.276225713579407,0.29456411028487,-0.771757581141857,-0.862298794855818,2,2,118,30,83,119,147,232,5,9,NA,NA
12,1,138," S2-19.jpg",2," [10 240 94]"," green","congruent",305,2,1,4.2359,2,0.8612,4.2374,78,37,80,0.7566,1,235,158,2,0,0,0,1,"signal2",1,1,1,"correct",1,0.8,1.44359582028392,0.701485945903857,-1.32854425250931,-0.149428513491929,0.256563143199557,4,2,78,37,80,79,114,196,7,11,73,100
12,1,139," S2-19.jpg",2," [10 240 94]"," green","congruent",142,2,1,1.986,3,0.6415,1.9871,82,80,92,0.7566,0,398,174,2,0,0,1,0,"signal1",2,3,2,"correct",1,0.8,0.686122565622981,-1.11087238119687,0.29456411028487,-0.443946094926446,-0.272938898541115,1,2,85,53,79,86,137,218,7,19,NA,NA
12,1,140," S2-19.jpg",2," [10 240 94]"," green","congruent",151,2,1,2.1249,3,0.5494,2.1259,129,56,83,0.7566,0,389,212,2,0,0,1,0,"signal1",4,2,4,"correct",1,0.8,0.753724742445549,-0.949124930259661,0.29456411028487,-0.598928505320964,-0.551575923665653,1,3,97,34,94,98,130,226,6,11,NA,NA
12,1,141," S1-15.jpg",1," [240 168 10]"," orange","neutral",272,1,1,3.79,3,0.8289,3.7908,93,42,139,0.7725,0,268,232,3,0,1,0,0,"noise2",3,4,4,"correct",NA,0.5,1.33236601909433,0.435353438693494,0.29456411028487,-0.187655758384657,0.187835822670069,3,3,195,35,108,196,229,339,9,8,NA,NA
12,1,142," S1-15.jpg",1," [240 168 10]"," orange","neutral",159,2,0,2.2143,3,0.4571,2.2156,77,25,84,0.7725,0,381,161,3,0,1,0,0,"noise2",1,2,1,"incorrect",NA,0.5,0.794936326461979,-0.850520580857754,0.29456411028487,-0.782853093644438,-0.882246997933068,1,3,NA,NA,NA,NA,NA,NA,NA,NA,NA,NA
12,1,143," S2-19.jpg",2," [181 10 240]"," purple","incongruent",251,2,1,3.5324,3,0.2666,3.5332,86,31,77,0.7566,0,289,163,1,0,0,0,1,"signal2",2,1,1,"correct",0,0.2,1.26197752661251,0.266939346583266,0.29456411028487,-1.32200587123753,-1.85156942396681,3,3,116,36,97,117,151,250,8,9,70,76
12,1,144," S2-19.jpg",2," [10 240 94]"," green","congruent",144,2,1,2.0306,3,0.2682,2.0316,75,30,96,0.7566,0,396,171,2,0,1,0,0,"noise2",1,3,2,"correct",1,0.8,0.708331315884985,-1.05773490970969,0.29456411028487,-1.31602230813456,-1.84081180174108,1,3,83,49,76,84,131,209,9,15,NA,NA
12,1,145," S2-19.jpg",2," [240 168 10]"," orange","neutral",183,1,0,2.5652,3,0.797,2.5667,81,143,141,0.7566,0,357,222,3,0,0,1,0,"signal1",1,4,4,"incorrect",NA,0.5,0.942036448292571,-0.498563427153974,0.29456411028487,-0.226900600191922,0.117279003061807,2,3,129,56,83,130,184,269,13,15,NA,NA
12,1,146," S2-19.jpg",2," [10 240 94]"," green","congruent",153,1,0,2.1473,3,0.3242,2.148,112,58,95,0.7566,1,387,207,2,0,0,1,0,"signal1",4,3,4,"incorrect",0,0.8,0.76421123899095,-0.924034553511408,0.29456411028487,-1.12639466968056,-1.49988742893186,1,3,112,58,95,113,169,266,15,13,NA,NA
12,1,147," S2-19.jpg",2," [10 240 94]"," green","congruent",193,1,0,2.693,3,0.4113,2.694,75,25,135,0.7566,0,347,210,2,0,1,0,0,"noise2",1,4,4,"incorrect",0,0.8,0.990655813829462,-0.382234947637453,0.29456411028487,-0.888432403745759,-1.07206405398767,2,3,NA,NA,NA,NA,NA,NA,NA,NA,NA,NA
12,1,148," S1-15.jpg",1," [181 10 240]"," purple","congruent",140,1,1,1.9673,3,0.3221,1.9683,87,28,78,0.7725,1,400,165,1,0,1,0,0,"noise2",2,1,1,"correct",1,0.8,0.676662044300083,-1.1335079719491,0.29456411028487,-1.13289322264498,-1.51157093198883,1,3,87,28,78,88,114,194,4,10,NA,NA
12,1,149," S2-19.jpg",2," [10 240 94]"," green","congruent",112,2,1,1.573,3,0.6405,1.574,93,29,101,0.7566,0,428,194,2,0,0,1,0,"signal1",3,3,3,"correct",1,0.8,0.452984624076141,-1.66868678206924,0.29456411028487,-0.445506157645348,-0.275743676411688,1,3,NA,NA,NA,NA,NA,NA,NA,NA,NA,NA
12,1,150," S1-15.jpg",1," [181 10 240]"," purple","congruent",151,2,0,2.1261,3,0.3668,2.1268,77,51,81,0.7725,0,389,158,1,0,1,0,0,"noise2",1,1,1,"incorrect",0,0.8,0.754289315502183,-0.947774112030568,0.29456411028487,-1.00293853859983,-1.27793031128118,1,3,81,53,77,82,133,212,16,10,NA,NA
12,1,151," S2-19.jpg",2," [10 240 94]"," green","congruent",129,2,1,1.8214,3,0.3043,1.8224,77,26,84,0.7566,0,411,161,2,0,1,0,0,"noise2",1,2,1,"correct",1,0.8,0.599605436151581,-1.31787644248815,0.29456411028487,-1.18974122207921,-1.61377580418247,1,3,87,34,89,88,120,211,9,8,NA,NA
12,1,152," S2-19.jpg",2," [240 168 10]"," orange","neutral",151,2,1,2.1278,3,0.3401,2.1287,117,25,97,0.7566,0,389,214,3,0,1,0,0,"noise2",4,3,4,"correct",NA,0.5,0.755088582100129,-0.945861757415475,0.29456411028487,-1.07851558696899,-1.41380743354086,1,3,88,67,95,89,154,251,17,16,NA,NA
12,1,153," S1-15.jpg",1," [181 10 240]"," purple","congruent",154,2,0,2.1585,2,0.8831,2.1597,76,50,86,0.7725,0,386,162,1,0,1,0,0,"noise2",1,2,1,"incorrect",0,0.8,0.769413536013395,-0.911587346602563,-1.32854425250931,-0.124316834507381,0.301710482890078,1,3,82,24,77,83,105,184,6,5,NA,NA
12,1,154," S1-15.jpg",1," [181 10 240]"," purple","congruent",169,2,0,2.3445,3,0.2927,2.3455,77,68,106,0.7725,0,371,183,1,0,1,0,0,"noise2",1,4,2,"incorrect",0,0.8,0.852072159547504,-0.71381528831942,0.29456411028487,-1.2286070852843,-1.68365127246816,1,3,82,69,100,83,150,252,20,14,NA,NA
12,1,155," S1-15.jpg",1," [181 10 240]"," purple","congruent",150,1,1,2.1407,2,0.4057,2.1415,97,42,103,0.7725,0,390,200,1,0,1,0,0,"noise2",3,3,3,"correct",1,0.8,0.76113287835104,-0.931399952230412,-1.32854425250931,-0.902141308769736,-1.09671077682461,1,3,75,38,89,76,112,203,10,9,NA,NA
12,1,156," S1-15.jpg",1," [181 10 240]"," purple","congruent",183,1,1,2.5711,3,0.3357,2.5718,104,67,77,0.7725,0,357,181,1,0,1,0,0,"noise2",4,1,2,"correct",1,0.8,0.944333822898798,-0.493066644300659,0.29456411028487,-1.09153737499615,-1.43721881466763,2,3,117,48,75,118,164,241,12,12,NA,NA
12,1,157," S1-15.jpg",1," [181 10 240]"," purple","congruent",148,2,0,2.079,3,0.3023,2.0799,78,43,79,0.7725,0,392,157,1,0,1,0,0,"noise2",1,1,1,"incorrect",0,0.8,0.731887008875876,-1.00137469358328,0.29456411028487,-1.19633537719672,-1.62563118674154,1,3,104,26,75,105,129,206,8,4,NA,NA
12,1,158," S1-15.jpg",1," [181 10 240]"," purple","congruent",168,2,0,2.3566,3,0.8846,2.3573,98,33,111,0.7725,0,372,209,1,0,1,0,0,"noise2",3,4,4,"incorrect",0,0.8,0.857219902297103,-0.701498609967279,0.29456411028487,-0.122619713547911,0.304761672597474,2,3,79,24,79,80,102,183,4,8,NA,NA
12,1,159," S1-15.jpg",1," [181 10 240]"," purple","congruent",329,2,0,4.5793,3,0.4631,4.5802,88,29,78,0.7725,0,211,166,1,0,0,0,1,"signal2",2,1,1,"incorrect",0,0.8,1.52154614801716,0.887992762742957,0.29456411028487,-0.769812265495431,-0.858801385289994,4,3,79,30,106,80,108,216,8,7,91,72
12,1,160," S1-15.jpg",1," [181 10 240]"," purple","congruent",157,2,0,2.1944,3,1.3902,2.1954,90,55,107,0.7725,0,383,197,1,0,1,0,0,"noise2",3,4,3,"incorrect",0,0.8,0.785908660641256,-0.872120505638983,0.29456411028487,0.329447621684249,1.11751646925098,1,3,95,89,91,96,183,276,24,20,NA,NA
12,1,161," S2-19.jpg",2," [10 240 94]"," green","congruent",254,2,1,3.5429,2,1.0137,3.5436,104,26,75,0.7566,0,286,179,2,0,0,0,1,"signal2",4,1,2,"correct",1,0.8,1.26494560081665,0.274040869925811,-1.32854425250931,0.0136070034062169,0.549678544505433,3,3,90,27,76,91,116,194,8,5,82,92
12,1,162," S1-15.jpg",1," [181 10 240]"," purple","congruent",303,2,0,4.2428,2,1.4051,4.2436,82,69,100,0.7725,0,237,182,1,0,0,0,1,"signal2",2,3,2,"incorrect",0,0.8,1.44522342864918,0.705380221452036,-1.32854425250931,0.340108474630157,1.13668321431951,4,3,120,66,99,121,185,286,13,19,78,50
12,1,163," S2-19.jpg",2," [240 168 10]"," orange","neutral",125,1,0,1.7818,4,1.054,1.7825,75,60,99,0.7566,1,415,174,3,0,0,1,0,"signal1",1,3,2,"incorrect",NA,0.5,0.577624089304406,-1.37046982021368,1.91767247307905,0.0525924501191706,0.619769007465692,1,3,75,60,99,76,134,235,17,13,NA,NA
12,1,164," S2-19.jpg",2," [10 240 94]"," green","congruent",140,2,1,1.9519,3,0.4135,1.9532,79,32,79,0.7566,0,400,158,2,0,1,0,0,"noise2",1,1,1,"correct",1,0.8,0.668803257170428,-1.15231119464733,0.29456411028487,-0.883097764518391,-1.06247310750127,1,3,81,31,78,82,111,191,7,8,NA,NA
12,1,165," S1-15.jpg",1," [181 10 240]"," purple","congruent",422,1,1,5.8867,3,1.6128,5.8875,133,34,105,0.7725,0,118,238,1,0,0,0,1,"signal2",4,4,4,"correct",1,0.8,1.77269556900583,1.48890209079451,0.29456411028487,0.477971798894912,1.38454248072998,4,3,81,54,122,82,134,258,17,10,73,69
12,1,166," S2-19.jpg",2," [10 240 94]"," green","congruent",293,2,1,4.1283,3,0.661,4.1291,88,23,89,0.7566,0,247,177,2,0,0,0,1,"signal2",2,2,2,"correct",1,0.8,1.41786569995721,0.639923115078496,0.29456411028487,-0.414001439130451,-0.219102532284228,3,3,89,29,84,90,117,203,7,7,82,87
12,1,167," S2-19.jpg",2," [240 168 10]"," orange","neutral",273,1,0,3.8334,3,0.5966,3.8346,79,86,107,0.7566,0,267,186,3,0,0,0,1,"signal2",1,4,3,"incorrect",NA,0.5,1.34375213785422,0.462596284590494,0.29456411028487,-0.516508406901489,-0.403395940042902,3,3,76,32,102,77,107,211,9,6,74,91
12,1,168," S2-19.jpg",2," [240 168 10]"," orange","neutral",292,2,1,4.0736,3,0.8143,4.0751,77,29,81,0.7566,0,248,158,3,0,0,0,1,"signal2",1,1,1,"correct",NA,0.5,1.40452712938095,0.608008761262369,0.29456411028487,-0.205426430509051,0.155886602093357,3,3,78,28,79,79,105,186,8,5,87,91
12,1,169," S1-15.jpg",1," [181 10 240]"," purple","congruent",175,1,1,2.4236,3,0.9389,2.4246,78,78,81,0.7725,0,365,159,1,0,1,0,0,"noise2",1,1,1,"correct",1,0.8,0.885254038088697,-0.634423107126311,0.29456411028487,-0.0630463017176353,0.41186646085475,2,3,103,27,77,104,129,208,10,3,NA,NA
12,1,170," S2-19.jpg",2," [240 168 10]"," orange","neutral",249,2,1,3.4487,3,0.6607,3.4494,117,48,75,0.7566,0,291,192,3,0,0,0,1,"signal2",4,1,3,"correct",NA,0.5,1.23799734843774,0.209563491616794,0.29456411028487,-0.414455399946297,-0.2199186912982,3,3,NA,NA,NA,NA,NA,NA,NA,NA,NA,NA
12,1,172," S2-19.jpg",2," [181 10 240]"," purple","incongruent",157,1,0,2.1667,3,0.422,2.1682,98,34,90,0.7566,0,383,188,1,0,1,0,0,"noise2",3,3,3,"incorrect",1,0.2,0.773205272730524,-0.902515098082662,0.29456411028487,-0.862749964946125,-1.02589056677156,1,3,100,43,100,101,142,244,14,7,NA,NA
12,1,173," S2-19.jpg",2," [10 240 94]"," green","congruent",260,2,1,3.6223,4,0.6509,3.6234,137,44,103,0.7566,0,280,240,2,0,1,0,0,"noise2",4,3,4,"correct",1,0.8,1.28710918319855,0.327070271084273,1.91767247307905,-0.429399258403795,-0.246785690294279,3,3,78,25,103,79,102,207,5,7,72,95
12,1,174," S2-19.jpg",2," [10 240 94]"," green","congruent",163,2,1,2.2878,4,0.5376,2.2886,97,34,94,0.7566,0,377,191,2,0,1,0,0,"noise2",3,3,3,"correct",1,0.8,0.827590657109436,-0.77239063012925,1.91767247307905,-0.620640489773197,-0.590611080893629,1,3,101,39,87,102,139,228,8,11,NA,NA
12,1,175," S1-15.jpg",1," [181 10 240]"," purple","congruent",409,1,1,5.6758,2,0.5939,5.6768,86,27,75,0.7725,0,131,161,1,0,0,0,1,"signal2",2,1,1,"correct",1,0.8,1.73621152259524,1.40160902148588,-1.32854425250931,-0.521044323960323,-0.411550894093931,4,3,87,52,115,88,138,255,15,11,73,70
12,1,176," S2-19.jpg",2," [240 168 10]"," orange","neutral",289,1,0,3.9838,3,0.3533,3.9849,82,26,117,0.7566,0,251,199,3,0,0,0,1,"signal2",2,4,3,"incorrect",NA,0.5,1.38223613765904,0.554674515837919,0.29456411028487,-1.04043772461704,-1.34534868224231,3,3,81,143,141,82,223,366,38,33,NA,NA
12,1,177," S2-19.jpg",2," [240 168 10]"," orange","neutral",150,2,1,2.1318,4,0.4532,2.1325,87,38,84,0.7566,0,390,171,3,0,1,0,0,"noise2",2,2,2,"correct",NA,0.5,0.7569666932729,-0.941368119650382,1.91767247307905,-0.791421749828286,-0.897652261422677,1,3,77,50,84,78,126,212,9,16,NA,NA
12,1,178," S2-19.jpg",2," [240 168 10]"," orange","neutral",269,2,1,3.776,3,0.6949,3.7768,79,48,101,0.7566,0,271,180,3,0,0,0,1,"signal2",1,3,2,"correct",NA,0.5,1.32866524828325,0.426498838541102,0.29456411028487,-0.363987328661855,-0.129184051085329,3,3,98,33,111,99,130,243,7,9,69,80
12,1,179," S2-19.jpg",2," [10 240 94]"," green","congruent",263,2,1,3.6628,3,0.5151,3.6641,90,31,80,0.7566,0,277,170,2,0,0,0,1,"signal2",3,1,1,"correct",1,0.8,1.29822788225144,0.353673278769406,0.29456411028487,-0.663394222410598,-0.66747640286617,3,3,86,58,90,87,143,235,15,13,74,79
12,1,180," S1-15.jpg",1," [181 10 240]"," purple","congruent",140,1,1,1.9736,3,0.2847,1.9744,134,37,102,0.7725,0,400,236,1,0,0,1,0,"signal1",4,3,4,"correct",1,0.8,0.67985928623301,-1.12585813348254,0.29456411028487,-1.25631928469815,-1.73347398966992,1,3,79,32,79,80,110,191,11,5,NA,NA
12,1,181," S2-19.jpg",2," [181 10 240]"," purple","incongruent",230,2,1,3.2283,3,1.302,3.229,84,26,107,0.7566,0,310,191,1,0,0,0,1,"signal2",2,4,3,"correct",0,0.2,1.17195568289232,0.0515497772706474,0.29456411028487,0.263901543786378,0.999673650136521,3,3,83,43,97,84,125,224,8,13,76,83
12,1,182," S2-19.jpg",2," [240 168 10]"," orange","neutral",164,2,1,2.2804,3,0.2431,2.2813,96,37,129,0.7566,0,376,225,3,0,1,0,0,"noise2",3,4,4,"correct",NA,0.5,0.82435086617529,-0.780142272898728,0.29456411028487,-1.41428239766006,-2.01746990742006,1,3,NA,NA,NA,NA,NA,NA,NA,NA,NA,NA
12,1,183," S2-19.jpg",2," [181 10 240]"," purple","incongruent",355,1,0,4.9458,2,0.677,4.9465,80,36,79,0.7566,0,185,159,1,0,0,0,1,"signal2",1,1,1,"incorrect",1,0.2,1.5985387315651,1.07220804567141,-1.32854425250931,-0.390084006069862,-0.17610228225809,4,3,106,25,87,107,130,219,5,7,75,86
12,1,184," S2-19.jpg",2," [10 240 94]"," green","congruent",389,2,1,5.3626,3,0.509,5.3636,105,47,90,0.7566,0,151,195,2,0,0,0,1,"signal2",4,3,3,"correct",1,0.8,1.67944893209891,1.26579676287368,0.29456411028487,-0.675307262431614,-0.688894407807479,4,3,96,37,129,97,132,263,7,11,67,72
12,1,185," S1-15.jpg",1," [181 10 240]"," purple","congruent",259,1,1,3.6036,3,0.631,3.6046,84,35,82,0.7725,0,281,166,1,0,0,0,1,"signal2",2,2,1,"correct",1,0.8,1.28193334579515,0.314686372431669,0.29456411028487,-0.460449416440924,-0.302609597298234,3,3,91,27,112,92,117,231,9,4,88,67
12,1,186," S1-15.jpg",1," [181 10 240]"," purple","congruent",309,1,1,4.3036,3,1.0298,4.3051,89,59,96,0.7725,0,231,185,1,0,0,0,1,"signal2",2,3,3,"correct",1,0.8,1.45945188173762,0.7394237408475,0.29456411028487,0.029364608629904,0.578008548093829,4,3,94,27,80,95,120,202,6,7,89,81
12,1,187," S2-19.jpg",2," [10 240 94]"," green","congruent",243,2,1,3.3853,4,1.4129,3.3862,95,89,91,0.7566,0,297,186,2,0,1,0,0,"noise2",3,3,3,"correct",1,0.8,1.21944252872963,0.165168548562469,1.91767247307905,0.345644329789625,1.14663591933441,3,3,85,28,91,86,112,205,5,9,81,87
12,1,188," S1-15.jpg",1," [181 10 240]"," purple","congruent",504,1,1,6.9796,3,1.1446,6.9806,90,31,84,0.7725,0,36,174,1,0,0,0,1,"signal2",3,2,2,"correct",1,0.8,1.94299160854194,1.89635864906427,0.29456411028487,0.135055230992865,0.768025728261639,4,3,82,37,84,83,118,204,11,7,90,79
12,1,189," S1-15.jpg",1," [181 10 240]"," purple","congruent",189,1,1,2.6646,4,0.3459,2.6656,91,28,86,0.7725,0,351,177,1,0,1,0,0,"noise2",3,2,2,"correct",1,0.8,0.980053952543975,-0.407601350299578,1.91767247307905,-1.06160556303901,-1.38340553986378,2,3,88,34,87,89,121,210,9,7,NA,NA
12,1,190," S1-15.jpg",1," [181 10 240]"," purple","congruent",137,1,1,1.9343,4,0.3819,1.935,98,79,111,0.7725,0,403,209,1,0,0,1,0,"signal1",3,4,4,"correct",1,0.8,0.659745503925915,-1.17398310770367,1.91767247307905,-0.962596484750667,-1.20540085556211,1,3,91,77,119,92,167,288,22,16,NA,NA
12,1,191," S2-19.jpg",2," [240 168 10]"," orange","neutral",244,2,1,3.3969,3,0.7736,3.3978,75,34,79,0.7566,0,296,154,3,0,0,0,1,"signal2",1,1,1,"correct",NA,0.5,1.22286325100597,0.173353094305932,0.29456411028487,-0.256700334843053,0.0637031850605573,3,3,82,35,79,83,116,197,11,6,70,102
12,1,192," S2-19.jpg",2," [181 10 240]"," purple","incongruent",363,2,1,5.0548,3,0.3677,5.0558,80,47,104,0.7566,0,177,184,1,0,0,0,1,"signal2",1,4,2,"correct",0,0.2,1.62033828690239,1.12436646235414,0.29456411028487,-1.00048789067491,-1.27352438388795,4,3,81,23,82,82,103,187,4,7,78,99
12,1,193," S1-15.jpg",1," [181 10 240]"," purple","congruent",321,2,0,4.469,3,0.5886,4.47,126,26,81,0.7725,0,219,207,1,0,0,0,1,"signal2",4,1,4,"incorrect",0,0.8,1.49716466995131,0.829656742919467,0.29456411028487,-0.530008443182765,-0.427667145652059,4,3,94,51,88,95,144,234,14,11,82,72
12,1,194," S1-15.jpg",1," [10 240 94]"," green","incongruent",273,1,1,3.7991,3,1.0224,3.7999,85,24,89,0.7725,0,267,174,2,0,0,0,1,"signal2",2,2,2,"correct",0,0.2,1.33476419657556,0.441091406207479,0.29456411028487,0.0221528046411333,0.565042717945123,3,3,92,30,93,93,121,216,9,5,87,76
12,1,195," S1-15.jpg",1," [181 10 240]"," purple","congruent",251,1,1,3.5242,3,0.4701,3.525,132,50,76,0.7725,0,289,208,1,0,1,0,0,"noise2",4,1,4,"correct",1,0.8,1.25965346015249,0.261378699820322,0.29456411028487,-0.754809840952052,-0.831829092538956,3,3,78,43,79,79,120,201,14,7,84,86
12,1,196," S2-19.jpg",2," [10 240 94]"," green","congruent",NA,2,1,7.7537,3,2.6938,7.4669,105,33,81,0.7566,0,NA,186,2,NA,NA,NA,NA,NA,4,1,3,"correct",1,0.8,2.04817014879173,2.14801268711918,0.29456411028487,0.990952836182577,2.30681172284128,4,3,81,32,100,82,112,214,10,6,76,88
12,1,197," S2-19.jpg",2," [181 10 240]"," purple","incongruent",176,1,0,2.4327,3,0.2672,2.4337,88,34,87,0.7566,0,364,175,1,0,1,0,0,"noise2",2,2,2,"incorrect",1,0.2,0.889001751636484,-0.625456190058116,0.29456411028487,-1.31975783731965,-1.84752776864823,2,3,107,26,90,108,132,224,8,5,NA,NA
12,1,198," S2-19.jpg",2," [10 240 94]"," green","congruent",139,1,0,1.9458,3,0.3298,1.9467,143,31,109,0.7566,0,401,252,2,1,0,0,0,"noise1",4,4,4,"incorrect",0,0.8,0.66567320355919,-1.15980027586795,0.29456411028487,-1.10926886885664,-1.46909759812263,1,3,86,27,75,87,112,189,9,4,NA,NA
12,1,199," S1-15.jpg",1," [240 168 10]"," orange","neutral",251,2,0,3.5111,2,0.7742,3.5126,85,26,83,0.7725,1,289,168,3,0,0,0,1,"signal2",2,2,1,"incorrect",NA,0.5,1.25592937869468,0.252468325758475,-1.32854425250931,-0.255925040838589,0.0650970568841444,3,3,85,26,83,86,110,195,7,6,94,79
12,1,200," S2-19.jpg",2," [181 10 240]"," purple","incongruent",284,2,1,3.9574,3,0.3043,3.9582,98,84,76,0.7566,0,256,174,1,0,0,0,1,"signal2",3,1,2,"correct",0,0.2,1.3755872439762,0.538766128633561,0.29456411028487,-1.18974122207921,-1.61377580418247,3,3,88,39,78,89,126,206,10,9,78,90
12,1,201," S1-15.jpg",1," [181 10 240]"," purple","congruent",257,2,0,3.6188,3,0.6686,3.6195,109,25,92,0.7725,1,283,201,1,0,0,0,1,"signal2",4,3,3,"incorrect",0,0.8,1.28614247916945,0.324757299522299,0.29456411028487,-0.402569304996139,-0.198549129882622,3,3,109,25,92,110,133,227,5,7,90,67
12,1,202," S2-19.jpg",2," [240 168 10]"," orange","neutral",447,2,1,6.221,3,0.4449,6.2219,103,27,77,0.7566,0,93,180,3,0,0,0,1,"signal2",3,1,2,"correct",NA,0.5,1.82793066553288,1.62105961123902,0.29456411028487,-0.809905741170141,-0.930883931692947,4,3,111,65,96,112,175,273,13,19,64,70
12,1,203," S2-19.jpg",2," [10 240 94]"," green","congruent",397,1,0,5.5142,2,1.1302,5.5149,89,44,75,0.7566,0,143,164,2,0,0,0,1,"signal2",2,1,1,"incorrect",0,0.8,1.70732658325321,1.33249785482461,-1.32854425250931,0.122394608213606,0.745263672500236,4,3,93,28,94,94,120,216,6,8,68,95
12,1,204," S2-19.jpg",2," [240 168 10]"," orange","neutral",342,2,1,4.7478,2,2.7348,4.7485,115,58,78,0.7566,0,198,193,3,0,0,0,1,"signal2",4,1,3,"correct",NA,0.5,1.55768135286107,0.974451180908033,-1.32854425250931,1.0060583070575,2.33396927870185,4,3,78,143,99,79,220,321,36,35,49,61
12,1,205," S1-15.jpg",1," [181 10 240]"," purple","congruent",337,1,1,4.6932,3,2.2421,4.6942,103,49,82,0.7725,0,203,185,1,0,0,0,1,"signal2",3,2,3,"correct",1,0.8,1.54611465256733,0.946776269001328,0.29456411028487,0.807412926688289,1.97683224811939,4,3,77,51,81,78,127,210,15,10,89,77
12,1,206," S1-15.jpg",1," [181 10 240]"," purple","congruent",484,1,1,6.7041,3,1.6857,6.7048,92,63,85,0.7725,1,56,177,1,0,0,0,1,"signal2",3,2,2,"correct",1,0.8,1.90271927953631,1.8000015956951,0.29456411028487,0.522180907804125,1.46402436876174,4,3,92,63,85,93,154,241,13,18,87,63
12,1,207," S2-19.jpg",2," [10 240 94]"," green","congruent",426,2,1,5.9161,3,1.5391,5.9172,87,51,86,0.7566,0,114,173,2,0,0,0,1,"signal2",2,2,2,"correct",1,0.8,1.77767744801874,1.50082191747896,0.29456411028487,0.431197830003771,1.30044932775914,4,3,128,44,95,129,171,268,10,11,64,73
12,1,208," S2-19.jpg",2," [240 168 10]"," orange","neutral",298,2,1,4.1523,3,2.1062,4.1533,94,27,80,0.7566,0,242,174,3,0,0,0,1,"signal2",3,1,2,"correct",NA,0.5,1.42366239758863,0.653792506713574,0.29456411028487,0.74488537596436,1.86441632506277,3,4,85,32,78,86,116,196,8,8,76,97
12,1,209," S2-19.jpg",2," [240 168 10]"," orange","neutral",338,2,1,4.6882,3,0.7012,4.689,83,83,114,0.7566,0,202,197,3,0,0,0,1,"signal2",2,4,3,"correct",NA,0.5,1.54504871348075,0.94422586399645,0.29456411028487,-0.354962125935058,-0.112957979800598,4,4,108,68,80,109,175,257,16,17,71,71
12,1,211," S2-19.jpg",2," [10 240 94]"," green","congruent",494,2,1,6.9541,4,1.1423,6.9549,80,41,85,0.7566,0,46,165,2,0,0,0,1,"signal2",1,2,1,"correct",1,0.8,1.9393314136951,1.88760113245408,1.91767247307905,0.133043773757764,0.764409405230355,4,4,104,38,102,105,141,245,8,10,67,81
12,1,212," S2-19.jpg",2," [10 240 94]"," green","congruent",228,2,1,3.2146,2,0.9788,3.2156,89,29,84,0.7566,0,312,173,2,0,0,0,1,"signal2",2,2,2,"correct",1,0.8,1.1677029331529,0.0413744920630459,-1.32854425250931,-0.0214279474136204,0.486690528981773,3,4,NA,NA,NA,NA,NA,NA,NA,NA,NA,NA
12,1,213," S2-19.jpg",2," [10 240 94]"," green","congruent",272,2,1,3.8092,4,0.2531,3.8102,79,27,195,0.7566,0,268,274,2,0,1,0,0,"noise2",1,4,4,"correct",1,0.8,1.33741919333775,0.447443848964746,1.91767247307905,-1.37397061143106,-1.94499486871268,3,4,112,27,96,113,138,236,5,8,77,76
12,1,214," S1-15.jpg",1," [181 10 240]"," purple","congruent",223,1,1,3.1123,3,0.2813,3.1133,90,70,92,0.7725,0,317,182,1,0,1,0,0,"noise2",3,3,2,"correct",1,0.8,1.13536200269814,-0.0360056058548781,0.29456411028487,-1.26833356348633,-1.75507400796899,2,4,106,48,77,107,153,232,13,10,NA,NA
12,1,215," S2-19.jpg",2," [10 240 94]"," green","congruent",161,2,1,2.2827,3,0.2772,2.2835,79,30,106,0.7566,0,379,185,2,0,1,0,0,"noise2",1,4,3,"correct",1,0.8,0.82535895286845,-0.777730287654964,0.29456411028487,-1.28301601166639,-1.7814710272954,1,4,83,45,77,84,127,206,12,10,NA,NA
12,1,216," S2-19.jpg",2," [181 10 240]"," purple","incongruent",197,2,1,2.7534,3,0.1585,2.7542,82,24,77,0.7566,0,343,159,1,0,0,0,1,"signal2",2,1,1,"correct",0,0.2,1.01283651164671,-0.329164595459829,0.29456411028487,-1.8420006856648,-2.78644847123014,2,4,76,30,97,77,105,204,6,8,NA,NA
12,1,217," S2-19.jpg",2," [10 240 94]"," green","congruent",275,1,0,3.8185,2,1.3337,3.8195,78,33,81,0.7566,0,265,159,2,0,0,0,1,"signal2",1,1,1,"incorrect",0,0.8,1.3398576753463,0.453278250570984,-1.32854425250931,0.287957034646212,1.0429221090683,3,4,82,25,143,83,106,251,6,6,67,78
12,1,218," S2-19.jpg",2," [10 240 94]"," green","congruent",156,2,1,2.175,3,0.6103,2.176,88,36,88,0.7566,0,384,176,2,0,1,0,0,"noise2",2,2,2,"correct",1,0.8,0.777028664540647,-0.893367110424739,0.29456411028487,-0.493804639431688,-0.362577693567053,1,4,83,41,93,84,123,218,10,10,NA,NA
12,1,219," S2-19.jpg",2," [10 240 94]"," green","congruent",116,2,1,1.6201,4,1.0433,1.6211,83,41,93,0.7566,0,424,176,2,0,0,1,0,"signal1",2,3,2,"correct",1,0.8,0.482487875734236,-1.5980962186532,1.91767247307905,0.0423887664917865,0.601424189856978,1,4,79,47,91,80,125,218,14,9,NA,NA
12,1,220," S2-19.jpg",2," [240 168 10]"," orange","neutral",168,2,1,2.3371,4,0.5065,2.3381,97,52,137,0.7566,0,372,234,3,0,1,0,0,"noise2",3,4,4,"correct",NA,0.5,0.848910844542842,-0.721379166698006,1.91767247307905,-0.680230955293399,-0.697746529336253,1,4,114,25,79,115,138,219,2,10,NA,NA
12,1,221," S1-15.jpg",1," [10 240 94]"," green","incongruent",260,2,0,3.6287,2,0.994,3.6297,92,24,119,0.7725,0,280,211,2,0,0,0,1,"signal2",3,4,4,"incorrect",1,0.2,1.28887445741231,0.331293930997318,-1.32854425250931,-0.00601807232556302,0.514395361685995,3,4,79,59,90,80,137,229,15,14,91,65
12,1,222," S2-19.jpg",2," [240 168 10]"," orange","neutral",252,2,1,3.5155,3,0.7453,3.5162,83,30,109,0.7566,0,288,192,3,0,0,0,1,"signal2",2,4,3,"correct",NA,0.5,1.25718176265708,0.255464825620376,0.29456411028487,-0.293968457094489,-0.00329976507864891,3,4,80,36,79,81,115,196,8,9,79,94
12,1,223," S2-19.jpg",2," [10 240 94]"," green","congruent",271,1,0,3.7725,3,0.7977,3.7734,85,24,76,0.7566,0,269,161,2,0,0,0,1,"signal2",2,1,1,"incorrect",0,0.8,1.32773791165987,0.4242800588798,0.29456411028487,-0.226022692065053,0.118857360942425,3,4,139,31,85,140,169,256,7,8,67,76
12,1,224," S2-19.jpg",2," [10 240 94]"," green","congruent",378,2,1,5.2155,2,2.2511,5.2164,135,32,88,0.7566,0,162,223,2,0,0,0,1,"signal2",4,2,4,"correct",1,0.8,1.65163496113389,1.19924803448226,-1.32854425250931,0.811418985637981,1.98403459027793,4,4,76,24,78,77,99,179,4,7,82,99
12,1,225," S2-19.jpg",2," [240 168 10]"," orange","neutral",182,1,0,2.5451,3,0.4079,2.5461,111,45,96,0.7566,0,358,207,3,0,1,0,0,"noise2",4,3,4,"incorrect",NA,0.5,0.934169941961392,-0.517385119097255,0.29456411028487,-0.896733232658624,-1.08698780093715,2,4,103,31,76,104,133,211,8,7,NA,NA
12,1,226," S2-19.jpg",2," [10 240 94]"," green","congruent",368,2,1,5.1377,3,0.4418,5.1389,83,66,80,0.7566,0,172,163,2,0,0,0,1,"signal2",2,1,1,"correct",1,0.8,1.63660550850501,1.16328801416986,0.29456411028487,-0.81689798799612,-0.943455028306865,4,4,97,52,137,98,148,287,8,18,57,70
12,1,227," S2-19.jpg",2," [181 10 240]"," purple","incongruent",424,2,1,5.8656,2,0.6763,5.8666,122,38,86,0.7566,1,116,208,1,0,0,0,1,"signal2",4,2,4,"correct",0,0.2,1.76910477866325,1.48031063395006,-1.32854425250931,-0.391118514401243,-0.177962185734806,4,4,NA,NA,NA,NA,NA,NA,NA,NA,NA,NA
12,1,228," S1-15.jpg",1," [181 10 240]"," purple","congruent",287,2,0,3.9797,3,0.3401,3.9807,88,36,121,0.7725,0,253,209,1,0,0,0,1,"signal2",2,4,4,"incorrect",0,0.8,1.38120643957094,0.552210822376967,0.29456411028487,-1.07851558696899,-1.41380743354086,3,4,110,41,89,111,150,241,10,10,86,64
12,1,229," S2-19.jpg",2," [240 168 10]"," orange","neutral",260,1,0,3.5975,3,0.7789,3.5986,84,25,82,0.7566,0,280,166,3,0,0,0,1,"signal2",2,2,1,"incorrect",NA,0.5,1.28023915977939,0.310632800751837,0.29456411028487,-0.249872611056234,0.0759784919130466,3,4,76,30,78,77,105,185,6,8,88,90
12,1,230," S1-15.jpg",1," [181 10 240]"," purple","congruent",361,1,1,5.0117,3,0.6823,5.0124,97,46,93,0.7725,0,179,190,1,0,0,0,1,"signal2",3,3,3,"correct",1,0.8,1.61177517889759,1.10387805566404,0.29456411028487,-0.382285835160759,-0.162082245158435,4,4,109,45,91,110,153,246,15,7,80,68
12,1,231," S1-15.jpg",1," [181 10 240]"," purple","congruent",181,1,1,2.5534,3,0.6366,2.5546,97,51,92,0.7725,0,359,189,1,0,1,0,0,"noise2",3,3,3,"correct",1,0.8,0.937425804404113,-0.509595023046138,0.29456411028487,-0.451613764134145,-0.286724311558202,2,4,94,62,85,95,155,242,18,12,NA,NA
12,1,232," S1-15.jpg",1," [181 10 240]"," purple","congruent",176,1,1,2.4356,4,0.5021,2.4365,101,41,76,0.7725,0,364,177,1,0,1,0,0,"noise2",3,1,2,"correct",1,0.8,0.890193132752282,-0.622605647847311,1.91767247307905,-0.688955975941477,-0.713432914593406,2,4,125,49,109,126,173,284,16,8,NA,NA
12,1,233," S2-19.jpg",2," [181 10 240]"," purple","incongruent",256,1,0,3.5558,2,0.6208,3.5567,124,45,110,0.7566,0,284,234,1,0,1,0,0,"noise2",4,4,4,"incorrect",1,0.2,1.26858007310033,0.282736841786755,-1.32854425250931,-0.476746310113128,-0.331909167230297,3,4,84,26,107,85,109,218,4,8,79,83
12,1,234," S2-19.jpg",2," [10 240 94]"," green","congruent",287,2,1,4.0207,2,1.2413,4.0215,88,39,78,0.7566,0,253,166,2,0,0,0,1,"signal2",2,1,1,"correct",1,0.8,1.39145601682541,0.576734337328929,-1.32854425250931,0.216159217539765,0.913839524031383,3,4,115,58,78,116,172,252,18,11,59,86
12,1,235," S1-15.jpg",1," [181 10 240]"," purple","congruent",157,1,1,2.1859,3,0.6594,2.1872,92,30,93,0.7725,0,383,185,1,0,1,0,0,"noise2",3,3,3,"correct",1,0.8,0.78202764305382,-0.881406370847998,0.29456411028487,-0.416424948344506,-0.223459668013679,1,4,NA,NA,NA,NA,NA,NA,NA,NA,NA,NA
12,1,236," S2-19.jpg",2," [10 240 94]"," green","congruent",170,2,1,2.3741,3,0.3247,2.3751,92,44,84,0.7566,0,370,176,2,0,1,0,0,"noise2",3,2,2,"correct",1,0.8,0.864618418299485,-0.683796648871495,0.29456411028487,-1.12485359987334,-1.49711679770021,2,4,116,35,77,117,150,229,8,9,NA,NA
12,1,237," S1-15.jpg",1," [181 10 240]"," purple","congruent",243,2,0,3.3717,3,0.4093,3.3724,195,71,115,0.7725,0,297,310,1,0,0,1,0,"signal1",4,4,4,"incorrect",0,0.8,1.21541706821019,0.155537083889732,0.29456411028487,-0.89330689548378,-1.08082771867335,3,4,NA,NA,NA,NA,NA,NA,NA,NA,NA,NA
12,1,238," S1-15.jpg",1," [181 10 240]"," purple","congruent",323,2,0,4.4863,3,0.7843,4.4871,91,77,119,0.7725,0,217,210,1,0,0,0,1,"signal2",3,4,4,"incorrect",0,0.8,1.50102830858336,0.838901026601569,0.29456411028487,-0.242963678763516,0.0883998004727041,4,4,86,31,77,87,116,195,10,5,93,80
12,1,239," S1-15.jpg",1," [181 10 240]"," purple","congruent",161,1,1,2.2543,3,0.7168,2.2558,113,32,78,0.7725,0,379,191,1,0,1,0,0,"noise2",4,1,3,"correct",1,0.8,0.81283950347795,-0.807684782040043,0.29456411028487,-0.332958417321416,-0.0733983427152982,1,4,82,29,94,83,110,206,10,4,NA,NA
12,1,240," S1-15.jpg",1," [181 10 240]"," purple","congruent",241,2,0,3.3299,3,0.345,3.3309,119,27,75,0.7725,0,299,194,1,0,0,0,1,"signal2",4,1,3,"incorrect",0,0.8,1.20294227351141,0.125689431959989,0.29456411028487,-1.06421086195078,-1.38808950842825,3,4,136,74,93,137,209,304,20,16,NA,NA
12,1,241," S2-19.jpg",2," [10 240 94]"," green","congruent",142,2,1,1.985,3,0.4853,1.9859,86,48,79,0.7566,0,398,165,2,0,1,0,0,"noise2",2,1,1,"correct",1,0.8,0.685618914139154,-1.11207743623354,0.29456411028487,-0.722988022570967,-0.774617846532469,1,4,NA,NA,NA,NA,NA,NA,NA,NA,NA,NA
12,1,242," S2-19.jpg",2," [240 168 10]"," orange","neutral",165,1,0,2.3264,3,0.7078,2.3273,114,46,89,0.7566,0,375,203,3,0,1,0,0,"noise2",4,2,3,"incorrect",NA,0.5,0.844322008357063,-0.73235858467986,0.29456411028487,-0.345593711070774,-0.0961148603700027,1,4,83,29,98,84,111,211,13,1,NA,NA
12,1,243," S1-15.jpg",1," [181 10 240]"," purple","congruent",165,2,0,2.3255,2,0.3466,2.3265,85,43,80,0.7725,0,375,165,1,0,1,0,0,"noise2",2,1,1,"incorrect",0,0.8,0.843935069682015,-0.733284388363999,-1.32854425250931,-1.05958390170063,-1.3797708712604,1,4,77,28,88,78,104,194,9,5,NA,NA
12,1,244," S1-15.jpg",1," [10 240 94]"," green","incongruent",127,2,0,1.8011,3,0.4039,1.802,81,54,122,0.7725,0,413,203,2,0,0,1,0,"signal1",1,4,3,"incorrect",1,0.2,0.588397589360875,-1.34469274832472,0.29456411028487,-0.90658795641277,-1.10470523676286,1,4,102,28,98,103,129,229,7,6,NA,NA
12,1,245," S1-15.jpg",1," [181 10 240]"," purple","congruent",271,1,1,3.7589,3,0.6433,3.76,80,37,112,0.7725,0,269,192,1,0,0,0,1,"signal2",1,4,3,"correct",1,0.8,1.32412636140828,0.415638931114656,0.29456411028487,-0.441144100565182,-0.267901298653161,3,4,117,25,97,118,141,240,5,7,79,72
12,1,246," S1-15.jpg",1," [181 10 240]"," purple","congruent",347,2,0,4.8262,3,2.104,4.827,100,46,77,0.7725,1,193,177,1,0,0,0,1,"signal2",3,1,2,"incorrect",0,0.8,1.57405940853228,1.01363791838662,0.29456411028487,0.743840294875463,1.86253741322444,4,4,100,46,77,101,145,224,11,11,79,80
12,1,247," S1-15.jpg",1," [181 10 240]"," purple","congruent",394,1,1,5.4745,4,1.1071,5.476,101,38,105,0.7725,0,146,206,1,0,0,0,1,"signal2",3,4,4,"correct",1,0.8,1.70010094733134,1.31520953295843,1.91767247307905,0.101743983883284,0.708136694569527,4,4,95,81,82,96,175,259,26,14,78,63
12,1,248," S2-19.jpg",2," [181 10 240]"," purple","incongruent",142,1,0,2.0123,4,0.7939,2.013,77,50,84,0.7566,0,398,161,1,0,1,0,0,"noise2",1,2,1,"incorrect",1,0.2,0.699278346490186,-1.07939537675153,1.91767247307905,-0.230797770251069,0.110272428129071,1,4,NA,NA,NA,NA,NA,NA,NA,NA,NA,NA
12,1,249," S2-19.jpg",2," [10 240 94]"," green","congruent",40,2,1,0.5679,4,0.5973,0.5688,77,52,83,0.7566,0,500,160,2,1,0,0,0,"noise1",1,2,1,"correct",1,0.8,-0.56580993209875,-4.10629205212585,1.91767247307905,-0.515335779243877,-0.401287717043504,1,4,98,34,90,99,131,223,NA,NA,NA,NA
12,1,250," S1-15.jpg",1," [181 10 240]"," purple","congruent",151,1,1,2.1586,4,0.5511,2.1595,93,29,98,0.7725,0,389,191,1,0,1,0,0,"noise2",3,3,3,"correct",1,0.8,0.769459863409109,-0.911476501974218,1.91767247307905,-0.595838998092947,-0.54602141524806,1,4,98,79,111,99,176,289,19,20,NA,NA
12,1,251," S1-15.jpg",1," [181 10 240]"," purple","congruent",188,2,0,2.6272,3,0.4544,2.6287,91,24,101,0.7725,0,352,192,1,0,1,0,0,"noise2",3,3,3,"incorrect",0,0.8,0.965918640275972,-0.441422017547493,0.29456411028487,-0.788777411575195,-0.892898105500153,2,4,76,30,80,77,105,187,2,12,105,72
12,1,252," S2-19.jpg",2," [10 240 94]"," green","congruent",150,2,1,2.137,3,0.9275,2.1379,85,42,118,0.7566,1,390,203,2,0,1,0,0,"noise2",2,4,3,"correct",1,0.8,0.759402976337011,-0.935538979319358,0.29456411028487,-0.0752624845005469,0.389903446985348,1,4,85,42,118,86,126,246,11,10,NA,NA
12,1,253," S1-15.jpg",1," [181 10 240]"," purple","congruent",61,1,1,0.8459,2,1.0542,0.8474,80,26,77,0.7725,1,479,157,1,1,0,0,0,"noise1",1,1,1,"correct",1,0.8,-0.167354129672168,-3.1529320660592,-1.32854425250931,0.0527821854389695,0.620110125434726,1,4,80,26,77,81,105,184,NA,NA,NA,NA
12,1,254," S2-19.jpg",2," [10 240 94]"," green","congruent",53,2,1,0.7197,3,0.3161,0.7207,92,32,140,0.7566,0,487,232,2,1,0,0,0,"noise1",3,4,4,"correct",1,0.8,-0.328920820468378,-3.53950246395092,0.29456411028487,-1.15169665976057,-1.54537692175673,1,4,87,56,98,88,142,242,NA,NA,NA,NA
12,1,255," S2-19.jpg",2," [240 168 10]"," orange","neutral",161,2,1,2.2745,3,0.7658,2.2754,102,28,98,0.7566,0,379,200,3,0,1,0,0,"noise2",3,3,3,"correct",NA,0.5,0.821760248027922,-0.786340681017867,0.29456411028487,-0.266834239938943,0.0454838196395046,1,4,89,40,123,90,128,253,8,12,NA,NA
12,1,256," S2-19.jpg",2," [240 168 10]"," orange","neutral",167,1,0,2.3718,3,0.477,2.3728,99,30,76,0.7566,0,373,175,3,0,1,0,0,"noise2",3,1,2,"incorrect",NA,0.5,0.863649160548558,-0.68611573056209,0.29456411028487,-0.740238788093796,-0.805632346656492,2,4,99,39,83,100,137,222,10,9,NA,NA
12,1,257," S2-19.jpg",2," [10 240 94]"," green","congruent",151,2,1,2.1242,3,0.4328,2.1252,83,49,76,0.7566,0,389,159,2,0,1,0,0,"noise2",2,1,1,"correct",1,0.8,0.753395260905302,-0.949913259892976,0.29456411028487,-0.837479551449865,-0.980457844294596,1,4,107,24,92,108,130,224,6,6,NA,NA
12,1,258," S1-15.jpg",1," [181 10 240]"," purple","congruent",151,1,1,2.1333,3,1.1965,2.1347,102,42,116,0.7725,0,389,218,1,0,1,0,0,"noise2",3,4,4,"correct",1,0.8,0.757670076575445,-0.939685178929152,0.29456411028487,0.179400628366291,0.847752644178376,1,4,NA,NA,NA,NA,NA,NA,NA,NA,NA,NA
12,1,259," S2-19.jpg",2," [10 240 94]"," green","congruent",181,2,1,2.5238,3,0.937,2.5248,83,43,97,0.7566,0,359,180,2,0,1,0,0,"noise2",2,3,2,"correct",1,0.8,0.925765702236673,-0.537493411706032,0.29456411028487,-0.0650719967437148,0.408224540236535,2,4,78,40,93,79,117,212,8,11,NA,NA
12,1,260," S2-19.jpg",2," [10 240 94]"," green","congruent",115,2,1,1.6243,3,0.3651,1.6258,76,45,81,0.7566,1,425,157,2,0,0,1,0,"signal1",1,1,1,"correct",1,0.8,0.485076953743213,-1.59190149552573,0.29456411028487,-1.00758399032055,-1.28628219356593,1,4,76,45,81,77,120,203,14,8,NA,NA
12,1,261," S1-15.jpg",1," [181 10 240]"," purple","congruent",105,1,1,1.4766,3,0.5449,1.4777,81,23,82,0.7725,0,435,163,1,0,1,0,0,"noise2",1,2,1,"correct",1,0.8,0.389742147642928,-1.82000305374606,0.29456411028487,-0.607152987393084,-0.566362409512223,1,4,94,40,95,95,133,230,8,11,NA,NA
12,1,262," S1-15.jpg",1," [10 240 94]"," green","incongruent",248,2,0,3.45,3,0.6694,3.4509,108,39,118,0.7725,0,292,226,2,0,1,0,0,"noise2",4,4,4,"incorrect",1,0.2,1.23837423104327,0.210465234779698,0.29456411028487,-0.401373490204911,-0.196399219611001,3,4,95,24,83,96,118,203,4,8,94,75
12,1,263," S2-19.jpg",2," [10 240 94]"," green","congruent",281,2,1,3.8935,3,0.7943,3.8944,91,46,78,0.7566,0,259,169,2,0,0,0,1,"signal2",3,1,1,"correct",1,0.8,1.3593084960349,0.499816998476625,0.29456411028487,-0.230294055343051,0.111178038147162,3,4,97,42,103,98,138,243,10,11,73,76
12,1,264," S2-19.jpg",2," [10 240 94]"," green","congruent",306,2,1,4.2837,3,0.5028,4.2846,75,38,89,0.7566,0,234,164,2,0,0,0,1,"signal2",1,2,1,"correct",1,0.8,1.45481712212222,0.728334444781421,0.29456411028487,-0.687562802266045,-0.710928180234093,4,4,96,38,132,97,133,267,9,9,60,77
12,1,265," S2-19.jpg",2," [240 168 10]"," orange","neutral",282,1,0,3.9406,2,0.8759,3.9414,110,90,104,0.7566,0,258,214,3,0,1,0,0,"noise2",4,4,4,"incorrect",NA,0.5,1.37133299597973,0.528587258641102,-1.32854425250931,-0.132503349813094,0.286992256059602,3,4,78,56,86,79,133,221,14,13,70,90
12,1,266," S1-15.jpg",1," [181 10 240]"," purple","congruent",174,1,1,2.4052,3,0.3442,2.4062,121,60,92,0.7725,0,366,213,1,0,0,1,0,"signal1",4,3,4,"correct",1,0.8,0.877633060183276,-0.652657338741158,0.29456411028487,-1.0665323952047,-1.39226330542853,2,4,86,35,95,87,120,217,13,4,NA,NA
12,1,267," S2-19.jpg",2," [181 10 240]"," purple","incongruent",347,1,0,4.8563,2,0.6604,4.8571,76,30,97,0.7566,0,193,173,1,0,0,0,1,"signal2",1,3,2,"incorrect",1,0.2,1.58027683109111,1.02851395193403,-1.32854425250931,-0.414909566936164,-0.22073522098466,4,4,140,42,88,141,181,271,6,14,66,69
12,1,268," S2-19.jpg",2," [10 240 94]"," green","congruent",195,2,1,2.7174,3,0.4089,2.7182,78,23,116,0.7566,0,345,194,2,0,1,0,0,"noise2",1,4,3,"correct",1,0.8,0.999675540808086,-0.36065401762138,0.29456411028487,-0.89428465161154,-1.08258558950555,2,4,123,72,99,124,194,295,14,22,NA,NA
12,1,269," S1-15.jpg",1," [10 240 94]"," green","incongruent",141,2,0,1.9783,3,0.3388,1.9792,99,34,110,0.7725,0,399,209,2,0,1,0,0,"noise2",3,4,4,"incorrect",1,0.2,0.682237890051909,-1.12016699863187,0.29456411028487,-1.08234531620424,-1.42069275916218,1,4,126,26,81,127,151,234,7,5,NA,NA
12,1,270," S2-19.jpg",2," [240 168 10]"," orange","neutral",187,2,1,2.6094,3,0.3641,2.6113,84,82,195,0.7566,0,353,279,3,0,1,0,0,"noise2",2,4,4,"correct",NA,0.5,0.959120309849511,-0.457687952592678,0.29456411028487,-1.01032672380075,-1.2912132505529,2,4,90,43,80,91,132,214,11,10,NA,NA
12,1,271," S1-15.jpg",1," [181 10 240]"," purple","congruent",381,1,1,5.2901,3,0.6676,5.2909,101,39,87,0.7725,0,159,188,1,0,0,0,1,"signal2",3,2,3,"correct",1,0.8,1.66583714928322,1.23322871141984,0.29456411028487,-0.404066087194457,-0.201240138094051,4,4,110,90,104,111,199,305,27,17,61,57
12,1,272," S2-19.jpg",2," [240 168 10]"," orange","neutral",280,1,0,3.8793,3,1.0459,3.8802,125,49,109,0.7566,0,260,234,3,0,1,0,0,"noise2",4,4,4,"incorrect",NA,0.5,1.35565472498778,0.491074851685527,0.29456411028487,0.0448777587780855,0.605899055130055,3,4,82,53,85,83,134,221,10,16,82,78
12,1,273," S2-19.jpg",2," [10 240 94]"," green","congruent",362,2,1,5.0366,1,1.5064,5.0375,90,27,76,0.7566,0,178,166,2,0,0,0,1,"signal2",3,1,1,"correct",1,0.8,1.61673125126157,1.1157361364125,-2.9516526153035,0.409722698360806,1.26183999925585,4,4,82,64,78,83,145,225,16,15,68,90
12,1,274," S2-19.jpg",2," [10 240 94]"," green","congruent",173,1,0,2.4322,2,1.316,2.4331,111,65,96,0.7566,0,367,207,2,0,0,1,0,"signal1",4,3,4,"incorrect",0,0.8,0.888796197564762,-0.625948006279036,-1.32854425250931,0.274596832903125,1.01890230669665,2,4,97,46,93,98,142,237,10,13,NA,NA
12,1,275," S2-19.jpg",2," [240 168 10]"," orange","neutral",193,2,1,2.6961,3,1.0627,2.6976,80,24,130,0.7566,0,347,210,3,0,1,0,0,"noise2",1,4,4,"correct",NA,0.5,0.9918062843503,-0.379482289618578,0.29456411028487,0.0608128393965124,0.63454813503103,2,4,119,29,81,120,147,230,4,10,NA,NA
12,1,276," S1-15.jpg",1," [181 10 240]"," purple","congruent",290,2,0,4.057,2,0.3715,4.0582,77,28,88,0.7725,0,250,165,1,0,0,0,1,"signal2",1,2,1,"incorrect",0,0.8,1.40044378422431,0.598238799680853,-1.32854425250931,-0.990206414824323,-1.25503970657776,3,4,76,49,83,77,124,209,10,14,90,76
13,1,2," S4-20.jpg",2," [10 144 240]"," blue","congruent",250,2,1,3.6002,3,0.8466,3.601,91,31,104,0.6979,0,290,195,2,0,0,0,1,"signal2",3,4,3,"correct",1,0.8,1.28098939947447,0.446980062960536,0.0740877942772706,-0.166526950895314,0.347129388458688,3,1,NA,NA,NA,NA,NA,NA,NA,NA,NA,NA
13,1,3," S3-12.jpg",1," [240 37 33]"," red","congruent",311,1,1,4.4649,3,0.6459,4.4659,89,27,80,0.778,1,229,169,1,0,0,0,1,"signal2",2,1,1,"correct",1,0.8,1.49624681766109,0.787591445955727,0.0740877942772706,-0.43711058594371,0.0245703112039671,3,1,89,27,80,90,115,197,8,5,86,86
13,1,4," S4-20.jpg",2," [10 144 240]"," blue","congruent",280,2,1,4.0564,3,0.4374,4.0571,139,31,85,0.6979,0,260,224,2,0,0,0,1,"signal2",4,2,4,"correct",1,0.8,1.4002958807557,0.635764012576904,0.0740877942772706,-0.82690717073947,-0.44010090472627,3,1,118,30,83,119,147,232,5,9,79,76
13,1,5," S3-12.jpg",1," [10 144 240]"," blue","incongruent",277,2,0,4.0226,4,1.1324,4.0234,138,25,81,0.778,0,263,219,2,0,0,0,1,"signal2",4,1,4,"incorrect",1,0.2,1.39192845973698,0.622523870289131,1.46587992962886,0.124339274255608,0.693867065969984,3,1,77,52,83,78,128,213,18,8,86,78
13,1,7," S3-12.jpg",1," [10 144 240]"," blue","incongruent",400,2,0,5.7169,2,0.8698,5.7179,96,27,76,0.778,0,140,172,2,0,0,0,1,"signal2",3,1,2,"incorrect",1,0.2,1.74342670043741,1.17871516392228,-1.31770434107432,-0.139491978818599,0.37935741158031,4,1,NA,NA,NA,NA,NA,NA,NA,NA,NA,NA
13,1,8," S4-20.jpg",2," [10 144 240]"," blue","congruent",435,2,1,6.2036,3,1.4348,6.2045,94,51,88,0.6979,0,105,182,2,0,0,0,1,"signal2",3,2,2,"correct",1,0.8,1.82512976870316,1.30799756130207,0.0740877942772706,0.36102546667599,0.976017462140088,4,1,NA,NA,NA,NA,NA,NA,NA,NA,NA,NA
13,1,9," S3-12.jpg",1," [240 239 10]"," yellow","neutral",NA,2,0,8.2438,1,0.7928,7.7432,86,58,90,0.778,1,NA,176,3,NA,NA,NA,NA,NA,2,3,2,"incorrect",NA,0.5,2.109461402666,1.75790814691267,-2.70949647642591,-0.232184295966359,0.268860158919647,4,1,86,58,90,87,143,235,13,15,91,62
13,1,10," S3-12.jpg",1," [240 37 33]"," red","congruent",431,2,0,6.1623,2,2.0516,6.1631,127,36,113,0.778,1,109,240,1,0,0,0,1,"signal2",4,4,4,"incorrect",0,0.8,1.8184500844811,1.29742799998328,-1.31770434107432,0.718619976532976,1.40230102178771,4,1,127,36,113,128,162,277,9,9,68,64
13,1,11," S4-20.jpg",2," [10 144 240]"," blue","congruent",396,2,1,5.6575,3,1.823,5.6585,84,62,83,0.6979,0,144,167,2,0,0,0,1,"signal2",2,2,1,"correct",1,0.8,1.73298209852556,1.16218820595726,0.0740877942772706,0.600483495696526,1.26147212708419,4,1,NA,NA,NA,NA,NA,NA,NA,NA,NA,NA
13,1,12," S4-20.jpg",2," [10 144 240]"," blue","congruent",485,2,1,6.9805,4,0.9731,6.9813,77,38,78,0.6979,0,55,155,2,0,0,0,1,"signal2",1,1,1,"correct",1,0.8,1.94312054744657,1.49469961629759,1.46587992962886,-0.0272684271541938,0.51313758370581,4,1,88,23,89,89,110,201,5,6,80,90
13,1,13," S4-20.jpg",2," [10 144 240]"," blue","congruent",417,2,1,5.9911,4,2.7357,5.9922,107,26,90,0.6979,0,123,197,2,0,0,0,1,"signal2",4,3,3,"correct",1,0.8,1.79027503466671,1.2528453660184,1.46587992962886,1.00638734462559,1.74534459387725,4,1,140,42,88,141,181,271,10,10,66,69
13,1,14," S3-12.jpg",1," [240 37 33]"," red","congruent",187,1,1,2.6946,4,0.8876,2.6956,104,38,102,0.778,0,353,206,1,0,1,0,0,"noise2",4,3,4,"correct",1,0.8,0.99124977033961,-0.0114878338465287,1.46587992962886,-0.119234087923698,0.403506568246851,3,1,79,59,90,80,137,229,10,19,NA,NA
13,1,15," S4-20.jpg",2," [10 144 240]"," blue","congruent",524,2,1,7.5332,3,0.4236,7.5339,81,53,77,0.6979,0,16,158,2,0,0,0,1,"signal2",1,1,1,"correct",1,0.8,2.01931991833845,1.61527326863206,0.0740877942772706,-0.858965665254886,-0.478317400735789,4,1,96,75,82,97,170,254,21,16,62,82
13,1,16," S4-20.jpg",2," [240 239 10]"," yellow","neutral",373,2,1,5.3492,3,0.8054,5.3501,95,81,82,0.6979,1,167,177,3,0,0,0,1,"signal2",3,2,2,"correct",NA,0.5,1.6769470170165,1.07352140520385,0.0740877942772706,-0.216416230564783,0.287657055580136,4,1,NA,NA,NA,NA,NA,NA,NA,NA,NA,NA
13,1,17," S4-20.jpg",2," [240 239 10]"," yellow","neutral",521,1,0,7.5155,2,0.8643,7.5164,103,31,76,0.6979,1,19,179,3,0,0,0,1,"signal2",3,1,2,"incorrect",NA,0.5,2.01696755459114,1.6115510188902,-1.31770434107432,-0.145835348223545,0.371795567045332,4,1,NA,NA,NA,NA,NA,NA,NA,NA,NA,NA
13,1,18," S4-20.jpg",2," [10 144 240]"," blue","congruent",373,2,1,5.3166,3,0.3733,5.3176,103,41,76,0.6979,0,167,179,2,0,0,0,1,"signal2",3,1,2,"correct",1,0.8,1.67083400129917,1.0638485086538,0.0740877942772706,-0.985372893061599,-0.629005740599239,4,1,95,50,83,96,144,229,12,13,78,78
13,1,19," S3-12.jpg",1," [240 239 10]"," yellow","neutral",360,2,0,5.2222,4,0.8983,5.2232,79,24,79,0.778,0,180,158,3,0,0,0,1,"signal2",1,1,1,"incorrect",NA,0.5,1.65291876904564,1.03550044015997,1.46587992962886,-0.107251190746976,0.417791217262932,4,1,113,32,78,114,144,224,9,7,84,75
13,1,20," S3-12.jpg",1," [240 239 10]"," yellow","neutral",458,1,1,6.5494,2,0.4693,6.5505,110,41,89,0.778,0,82,199,3,0,0,0,1,"signal2",4,2,3,"correct",NA,0.5,1.87937344239791,1.39382973782614,-1.31770434107432,-0.756513056181765,-0.356185036599821,4,1,112,58,95,113,169,266,9,19,84,54
13,1,21," S3-12.jpg",1," [240 239 10]"," yellow","neutral",280,1,1,4.0429,2,0.3991,4.0438,82,29,94,0.778,0,260,176,3,0,0,0,1,"signal2",2,3,2,"correct",NA,0.5,1.39696225624441,0.630489070301996,-1.31770434107432,-0.918543266927449,-0.549339050722544,3,1,79,35,136,80,113,251,10,7,78,67
13,1,22," S3-12.jpg",1," [240 37 33]"," red","congruent",367,2,0,5.3026,2,0.8472,5.3033,93,26,80,0.778,0,173,173,1,0,0,0,1,"signal2",3,1,2,"incorrect",0,0.8,1.66819726630763,1.05967628564923,-1.31770434107432,-0.16581848469494,0.347973941396332,4,1,105,47,90,106,151,243,14,9,78,71
13,1,24," S4-20.jpg",2," [240 37 33]"," red","incongruent",NA,2,1,8.0215,1,0.4611,7.7353,82,53,85,0.6979,0,NA,167,1,NA,NA,NA,NA,NA,2,2,1,"correct",0,0.2,2.08212543680899,1.71465323279866,-2.70949647642591,-0.774140339769477,-0.37719828201484,4,1,NA,NA,NA,NA,NA,NA,NA,NA,NA,NA
13,1,25," S3-12.jpg",1," [240 239 10]"," yellow","neutral",332,2,0,4.7453,3,0.2715,4.7464,86,87,102,0.778,0,208,188,3,0,0,0,1,"signal2",2,3,3,"incorrect",NA,0.5,1.5571546545101,0.883968624122945,0.0740877942772706,-1.30379313960815,-1.00859019287739,3,1,85,42,118,86,126,246,13,8,85,63
13,1,26," S3-12.jpg",1," [240 239 10]"," yellow","neutral",364,1,1,5.2707,2,1.6849,5.2717,76,49,83,0.778,0,176,159,3,0,0,0,1,"signal2",1,2,1,"correct",NA,0.5,1.66216318105698,1.0501282842858,-1.31770434107432,0.521706214862203,1.16756280026918,4,1,85,24,89,86,108,199,7,5,96,75
13,1,27," S3-12.jpg",1," [240 239 10]"," yellow","neutral",477,2,0,6.8136,3,0.5089,6.8144,116,35,77,0.778,0,63,193,3,0,0,0,1,"signal2",4,1,3,"incorrect",NA,0.5,1.91892061484473,1.45640698702915,0.0740877942772706,-0.67550374538735,-0.259614937176721,4,1,98,79,111,99,176,289,25,14,63,63
13,1,28," S3-12.jpg",1," [240 37 33]"," red","congruent",488,1,1,7.0569,3,0.3361,7.0577,80,57,82,0.778,0,52,162,1,0,0,0,1,"signal2",1,2,1,"correct",1,0.8,1.95400586159096,1.51192393282193,0.0740877942772706,-1.09034654425108,-0.754143404810458,4,1,195,35,108,196,229,339,5,12,55,46
13,1,29," S3-12.jpg",1," [240 37 33]"," red","congruent",290,1,1,4.206,3,1.6398,4.2068,99,61,85,0.778,0,250,184,1,0,0,0,1,"signal2",3,2,2,"correct",1,0.8,1.43651207728051,0.693070510485583,0.0740877942772706,0.49457428317994,1.13521919291833,3,1,93,29,98,94,121,221,7,7,85,75
13,1,30," S3-12.jpg",1," [10 144 240]"," blue","incongruent",517,2,0,7.4031,3,1.0339,7.4042,90,91,86,0.778,0,23,176,2,0,0,0,1,"signal2",3,2,2,"incorrect",1,0.2,2.00189883140701,1.58770710825075,0.0740877942772706,0.0333380596105104,0.585385753640318,4,1,89,29,87,90,117,206,11,3,94,74
13,1,31," S3-12.jpg",1," [240 37 33]"," red","congruent",236,1,1,3.4038,3,0.4689,3.4048,128,44,95,0.778,0,304,223,1,0,1,0,0,"noise2",4,3,4,"correct",1,0.8,1.22489245457844,0.358215373019509,0.0740877942772706,-0.757365752886596,-0.357201524763414,3,1,99,30,76,100,128,206,11,4,86,82
13,1,32," S4-20.jpg",2," [240 37 33]"," red","incongruent",341,1,0,4.7928,3,0.3806,4.7935,78,143,99,0.6979,0,199,177,1,0,0,0,1,"signal2",1,3,2,"incorrect",1,0.2,1.56711479178758,0.899728992158038,0.0740877942772706,-0.966006324120088,-0.605919116730629,3,1,NA,NA,NA,NA,NA,NA,NA,NA,NA,NA
13,1,33," S4-20.jpg",2," [10 144 240]"," blue","congruent",463,1,0,6.6676,3,0.4735,6.6691,95,24,83,0.6979,0,77,178,2,0,0,0,1,"signal2",3,2,2,"incorrect",0,0.8,1.8972599750868,1.42213239372285,0.0740877942772706,-0.747603366356004,-0.345563916337655,4,1,136,74,93,137,209,304,16,20,59,60
13,1,34," S4-20.jpg",2," [10 144 240]"," blue","congruent",516,2,1,7.416,3,1.6442,7.417,94,62,85,0.6979,0,24,179,2,0,0,0,1,"signal2",3,2,2,"correct",1,0.8,2.00363982826355,1.5904619649804,0.0740877942772706,0.497253943735896,1.13841357988165,4,1,87,52,115,88,138,255,11,15,72,71
13,1,35," S3-12.jpg",1," [240 37 33]"," red","congruent",486,2,0,6.9649,3,1.7148,6.9659,87,23,85,0.778,0,54,172,1,0,0,0,1,"signal2",2,2,2,"incorrect",0,0.8,1.9408832496269,1.4911594404888,0.0740877942772706,0.539296455741685,1.18853188757469,4,1,NA,NA,NA,NA,NA,NA,NA,NA,NA,NA
13,1,36," S4-20.jpg",2," [240 37 33]"," red","incongruent",464,1,0,6.7309,1,0.5315,6.7319,91,27,112,0.6979,0,76,203,1,0,0,0,1,"signal2",3,4,3,"incorrect",1,0.2,1.90670886428473,1.43708379119193,-2.70949647642591,-0.632052081200134,-0.207816798302198,4,1,79,47,91,80,125,218,12,11,78,84
13,1,37," S3-12.jpg",1," [240 239 10]"," yellow","neutral",359,2,0,5.1789,3,0.3018,5.1799,120,26,89,0.778,0,181,209,3,0,0,0,1,"signal2",4,2,4,"incorrect",NA,0.5,1.64459267850848,1.0223256969307,0.0740877942772706,-1.19799073264839,-0.882464580165574,4,1,115,57,88,116,171,261,12,16,79,61
13,1,38," S4-20.jpg",2," [10 144 240]"," blue","congruent",273,1,0,3.8771,2,2.5381,3.8781,84,33,108,0.6979,0,267,192,2,0,0,0,1,"signal2",2,4,3,"incorrect",0,0.8,1.35508745149518,0.564228705021939,-1.31770434107432,0.931415769619224,1.65597199730443,3,1,NA,NA,NA,NA,NA,NA,NA,NA,NA,NA
13,1,40," S3-12.jpg",1," [240 37 33]"," red","congruent",173,2,0,2.546,2,1.8263,2.5471,78,28,79,0.778,0,367,157,1,0,1,0,0,"noise2",1,1,1,"incorrect",0,0.8,0.934523500135215,-0.101248333202361,-1.31770434107432,0.602292062215859,1.26362809467449,2,1,99,34,110,100,132,244,7,10,NA,NA
13,1,41," S3-12.jpg",1," [240 37 33]"," red","congruent",340,1,1,4.8861,3,0.4076,4.8868,102,37,106,0.778,0,200,208,1,0,0,0,1,"signal2",3,4,4,"correct",1,0.8,1.58639443926549,0.930236035522358,0.0740877942772706,-0.897468977633567,-0.524216676609943,4,1,94,27,80,95,120,202,7,6,86,84
13,1,42," S3-12.jpg",1," [240 37 33]"," red","congruent",206,1,1,2.9446,3,0.4012,2.9457,76,27,94,0.778,0,334,170,1,0,0,0,1,"signal2",1,3,1,"correct",1,0.8,1.07997298444917,0.128902852412825,0.0740877942772706,-0.913295222894357,-0.543082928690613,3,1,78,56,86,79,133,221,16,11,NA,NA
13,1,43," S4-20.jpg",2," [10 144 240]"," blue","congruent",289,2,1,4.1796,2,1.2968,4.1806,141,54,84,0.6979,0,251,225,2,0,0,0,1,"signal2",4,2,4,"correct",1,0.8,1.43021554817782,0.683107232546994,-1.31770434107432,0.259899691439329,0.855466798604315,3,1,95,89,91,96,183,276,23,21,62,71
13,1,44," S3-12.jpg",1," [240 239 10]"," yellow","neutral",363,1,1,5.2273,3,1.846,5.2281,112,27,96,0.778,0,177,208,3,0,0,0,1,"signal2",4,3,4,"correct",NA,0.5,1.65389489238263,1.03704500351388,0.0740877942772706,0.61302113608066,1.27641807794532,4,1,81,55,108,82,135,245,14,13,84,64
13,1,45," S4-20.jpg",2," [10 144 240]"," blue","congruent",412,2,1,5.8934,3,0.2432,5.8949,89,40,123,0.6979,0,128,212,2,0,0,0,1,"signal2",2,4,4,"correct",1,0.8,1.7738330806946,1.22682853125024,0.0740877942772706,-1.41387112889013,-1.13981266922005,4,1,NA,NA,NA,NA,NA,NA,NA,NA,NA,NA
13,1,46," S4-20.jpg",2," [10 144 240]"," blue","congruent",479,2,1,6.911,4,0.5984,6.9122,82,35,79,0.6979,0,61,161,2,0,0,0,1,"signal2",2,1,1,"correct",1,0.8,1.93311434510926,1.47886635747031,1.46587992962886,-0.513495852321869,-0.0664875276575305,4,1,77,57,114,78,133,249,16,12,68,78
13,1,47," S3-12.jpg",1," [240 37 33]"," red","congruent",488,1,1,6.981,3,2.4363,6.9819,75,28,103,0.778,0,52,178,1,0,0,0,1,"signal2",1,3,2,"correct",1,0.8,1.94319217298826,1.49481295257664,0.0740877942772706,0.890480494974338,1.60717361223483,4,1,79,32,79,80,110,191,8,8,100,75
13,1,48," S4-20.jpg",2," [10 144 240]"," blue","congruent",379,1,0,5.409,2,1.1217,5.41,76,30,80,0.6979,0,161,156,2,0,0,0,1,"signal2",1,1,1,"incorrect",0,0.8,1.68806423288929,1.09111267014322,-1.31770434107432,0.114845391669041,0.68254953745005,4,1,86,33,142,87,118,262,9,7,66,74
13,1,49," S3-12.jpg",1," [240 239 10]"," yellow","neutral",356,2,0,5.0847,3,0.8952,5.0856,106,64,100,0.778,0,184,206,3,0,0,0,1,"signal2",4,3,4,"incorrect",NA,0.5,1.62623603070998,0.993279156995056,0.0740877942772706,-0.110708121984422,0.413670256474287,4,1,82,26,117,83,107,226,8,4,86,72
13,1,50," S3-12.jpg",1," [10 144 240]"," blue","incongruent",366,2,0,5.2721,3,0.8276,5.2728,81,31,78,0.778,0,174,159,2,0,0,0,1,"signal2",1,1,1,"incorrect",1,0.2,1.66242876515385,1.05054852980996,0.0740877942772706,-0.189225333110749,0.320070955226847,4,1,NA,NA,NA,NA,NA,NA,NA,NA,NA,NA
13,1,51," S3-12.jpg",1," [240 37 33]"," red","congruent",136,1,1,1.9707,3,2.1071,1.9722,116,36,97,0.778,0,404,213,1,0,0,1,0,"signal1",4,3,4,"correct",1,0.8,0.6783888095844,-0.506541641635167,0.0740877942772706,0.745312594540625,1.43412092927221,2,1,86,31,77,87,116,195,8,7,NA,NA
13,1,53," S3-12.jpg",1," [240 239 10]"," yellow","neutral",281,1,1,4.14,3,1.7499,4.1409,81,55,108,0.778,0,259,189,3,0,0,0,1,"signal2",1,4,3,"correct",NA,0.5,1.42069578783722,0.668043692517994,0.0740877942772706,0.559558643445565,1.21268616640888,3,1,92,65,76,93,156,234,18,14,82,72
13,1,55," S4-20.jpg",2," [10 144 240]"," blue","congruent",75,1,0,1.1113,2,2.5016,1.1123,90,43,80,0.6979,0,465,170,2,1,0,0,0,"noise1",3,1,1,"incorrect",0,0.8,0.105530501209464,-1.41300081186786,-1.31770434107432,0.916930527161494,1.63870433645665,1,1,NA,NA,NA,NA,NA,NA,NA,NA,NA,NA
13,1,56," S3-12.jpg",1," [240 239 10]"," yellow","neutral",164,2,0,2.398,3,1.4104,2.3994,84,25,120,0.778,0,376,204,3,0,1,0,0,"noise2",2,4,3,"incorrect",NA,0.5,0.874635056605323,-0.196012479999204,0.0740877942772706,0.343873352101523,0.955570659253736,2,1,82,69,100,83,150,252,17,17,NA,NA
13,1,58," S4-20.jpg",2," [240 37 33]"," red","incongruent",380,2,1,5.4592,3,1.3333,5.4601,78,56,86,0.6979,0,160,164,1,0,0,0,1,"signal2",1,2,1,"correct",0,0.2,1.69730225887517,1.10573040937703,0.0740877942772706,0.287657072139276,0.888555995236555,4,1,NA,NA,NA,NA,NA,NA,NA,NA,NA,NA
13,1,59," S4-20.jpg",2," [10 144 240]"," blue","congruent",396,2,1,5.7192,3,0.7553,5.7202,83,33,97,0.6979,0,144,180,2,0,0,0,1,"signal2",2,3,2,"correct",1,0.8,1.7438289354705,1.17935163829825,0.0740877942772706,-0.280640257662735,0.211096464934689,4,1,NA,NA,NA,NA,NA,NA,NA,NA,NA,NA
13,1,60," S3-12.jpg",1," [240 239 10]"," yellow","neutral",361,1,1,5.2231,2,1.4642,5.2239,118,30,93,0.778,0,179,211,3,0,0,0,1,"signal2",4,3,4,"correct",NA,0.5,1.6530910953555,1.03577311974159,-1.31770434107432,0.381309018230405,1.00019720853041,4,1,90,91,86,91,180,268,28,17,76,61
13,1,61," S3-12.jpg",1," [240 37 33]"," red","congruent",143,1,1,2.1135,3,0.3617,2.1143,82,37,84,0.778,0,397,166,1,0,1,0,0,"noise2",2,2,1,"correct",1,0.8,0.748345341024708,-0.395846311717328,0.0740877942772706,-1.01694014002408,-0.666636627071254,2,1,101,41,76,102,141,219,7,13,NA,NA
13,1,62," S3-12.jpg",1," [10 144 240]"," blue","incongruent",139,2,0,2.0452,3,1.1467,2.0459,106,48,77,0.778,0,401,183,2,0,0,1,0,"signal1",4,1,2,"incorrect",1,0.2,0.715495584223707,-0.447825942381412,0.0740877942772706,0.136888252062122,0.708826532018384,2,1,84,82,195,85,165,362,19,21,NA,NA
13,1,63," S3-12.jpg",1," [240 37 33]"," red","congruent",71,1,1,1.0644,3,0.2951,1.0653,80,23,128,0.778,0,469,208,1,1,0,0,0,"noise1",1,4,4,"correct",1,0.8,0.0624112601213971,-1.48123030409366,0.0740877942772706,-1.22044099703324,-0.909227235500617,1,1,89,25,87,90,113,202,NA,NA,NA,NA
13,1,64," S3-12.jpg",1," [240 37 33]"," red","congruent",92,1,1,1.3634,3,0.2777,1.3649,79,47,91,0.778,0,448,170,1,0,0,1,0,"signal1",1,3,1,"correct",1,0.8,0.309981579946548,-1.08948878022617,0.0740877942772706,-1.28121388466938,-0.98167376965451,1,1,85,24,76,86,108,186,8,4,NA,NA
13,1,65," S3-12.jpg",1," [240 37 33]"," red","congruent",211,1,1,3.0906,4,0.687,3.0914,109,45,91,0.778,0,329,200,1,0,1,0,0,"noise2",4,3,3,"correct",1,0.8,1.12836524681746,0.205476080645258,1.46587992962886,-0.375420986759788,0.0981096447465169,3,1,78,28,79,79,105,186,8,5,89,89
13,1,66," S3-12.jpg",1," [240 37 33]"," red","congruent",189,2,0,2.7331,2,0.8753,2.7339,80,39,77,0.778,0,351,157,1,0,1,0,0,"noise2",1,1,1,"incorrect",0,0.8,1.00543649610457,0.0109604530635477,-1.31770434107432,-0.133188594243745,0.386871590742265,3,1,81,143,141,82,223,366,40,31,NA,NA
13,1,67," S4-20.jpg",2," [10 144 240]"," blue","congruent",140,2,1,2.0656,3,0.6877,2.0671,118,30,83,0.6979,0,400,201,2,0,0,1,0,"signal1",4,2,3,"correct",1,0.8,0.725420741110241,-0.43212092537412,0.0740877942772706,-0.374402582656347,0.0993236704499546,2,1,NA,NA,NA,NA,NA,NA,NA,NA,NA,NA
13,1,68," S4-20.jpg",2," [240 239 10]"," yellow","neutral",296,2,1,4.2786,3,0.7539,4.2794,85,28,91,0.6979,1,244,176,3,0,0,0,1,"signal2",2,3,2,"correct",NA,0.5,1.45362585328018,0.720150399116706,0.0740877942772706,-0.282495545764481,0.208884801180398,3,1,NA,NA,NA,NA,NA,NA,NA,NA,NA,NA
13,1,69," S4-20.jpg",2," [10 144 240]"," blue","congruent",346,2,1,4.9851,2,1.2892,4.9858,78,28,80,0.6979,0,194,158,2,0,0,0,1,"signal2",1,1,1,"correct",1,0.8,1.60645346339314,0.961976321210122,-1.31770434107432,0.254021870959146,0.848459928621148,4,1,78,28,80,79,105,187,8,5,85,92
13,1,70," S4-20.jpg",2," [10 144 240]"," blue","congruent",350,2,1,5.0373,3,0.8223,5.038,113,61,87,0.6979,0,190,200,2,0,0,0,1,"signal2",4,2,3,"correct",1,0.8,1.6168702242514,0.978459225038247,0.0740877942772706,-0.195649987005287,0.312412212555538,4,1,84,25,120,85,108,230,5,7,77,79
13,1,71," S3-12.jpg",1," [10 144 240]"," blue","incongruent",294,1,1,4.2551,2,2.0539,4.2563,114,25,79,0.778,0,246,193,2,0,0,0,1,"signal2",4,1,3,"correct",0,0.2,1.44811826351181,0.71143549496252,-1.31770434107432,0.719740424829466,1.40363669298809,3,1,97,46,93,98,142,237,12,11,83,69
13,1,72," S3-12.jpg",1," [240 239 10]"," yellow","neutral",509,2,0,7.3088,4,1.9774,7.3099,100,44,117,0.778,0,31,217,3,0,0,0,1,"signal2",3,4,4,"incorrect",NA,0.5,1.98907910159944,1.56742187981977,1.46587992962886,0.681782850480896,1.35838798400939,4,1,93,28,94,94,120,216,8,6,83,80
13,1,73," S4-20.jpg",2," [10 144 240]"," blue","congruent",475,2,1,6.9125,2,1.3788,6.9133,96,75,82,0.6979,0,65,178,2,0,0,0,1,"signal2",3,2,2,"correct",1,0.8,1.93333136684845,1.47920976061688,-1.31770434107432,0.321213555660573,0.928558223599727,4,1,104,67,77,105,170,249,16,17,71,75
13,1,74," S4-20.jpg",2," [10 144 240]"," blue","congruent",315,2,1,4.5186,4,2.2904,4.5194,106,25,87,0.6979,0,225,193,2,0,0,0,1,"signal2",4,2,3,"correct",1,0.8,1.50820221135322,0.806508996923476,1.46587992962886,0.828726474801768,1.53355748330645,3,2,NA,NA,NA,NA,NA,NA,NA,NA,NA,NA
13,1,75," S4-20.jpg",2," [10 144 240]"," blue","congruent",213,1,0,3.0642,3,1.3057,3.0653,131,88,76,0.6979,0,327,207,2,0,0,1,0,"signal1",4,1,4,"incorrect",0,0.8,1.11978652389952,0.191901585968009,0.0740877942772706,0.266739295431856,0.863620197653088,3,2,NA,NA,NA,NA,NA,NA,NA,NA,NA,NA
13,1,76," S3-12.jpg",1," [240 37 33]"," red","congruent",186,1,1,2.7627,3,0.4677,2.7642,87,34,89,0.778,0,354,176,1,0,1,0,0,"noise2",2,2,2,"correct",1,0.8,1.01620846241329,0.0280054142681468,0.0740877942772706,-0.759928214250297,-0.360256200161016,3,2,91,24,101,92,114,217,8,4,NA,NA
13,1,77," S3-12.jpg",1," [240 239 10]"," yellow","neutral",206,2,0,2.9819,3,0.7678,2.9829,101,47,86,0.778,0,334,187,3,0,1,0,0,"noise2",3,2,3,"incorrect",NA,0.5,1.09256068123967,0.148820924684882,0.0740877942772706,-0.26422599641544,0.23066368288857,3,2,95,85,82,96,179,263,27,15,NA,NA
13,1,78," S4-20.jpg",2," [10 144 240]"," blue","congruent",493,2,1,7.1098,2,1.3417,7.1108,93,25,81,0.6979,0,47,174,2,0,0,0,1,"signal2",3,1,2,"correct",1,0.8,1.96147411402429,1.52374128068062,-1.31770434107432,0.293937466614289,0.896042768212658,4,2,82,24,77,83,105,184,3,8,91,88
13,1,79," S3-12.jpg",1," [240 239 10]"," yellow","neutral",141,1,1,2.0766,4,1.7007,2.0781,107,36,90,0.778,0,399,197,3,0,0,1,0,"signal1",4,3,3,"correct",NA,0.5,0.730731940887216,-0.423716777834679,1.46587992962886,0.531039931016231,1.17868939655968,2,2,137,44,103,138,180,285,17,5,NA,NA
13,1,80," S4-20.jpg",2," [240 37 33]"," red","incongruent",481,2,1,6.9157,3,1.2455,6.9165,102,31,125,0.6979,1,59,227,1,0,0,0,1,"signal2",3,4,4,"correct",0,0.2,1.93379418920525,1.4799421050088,0.0740877942772706,0.219537055720098,0.807351048622484,4,2,NA,NA,NA,NA,NA,NA,NA,NA,NA,NA
13,1,81," S3-12.jpg",1," [240 37 33]"," red","congruent",128,1,1,1.8692,3,0.6945,1.8699,94,40,95,0.778,0,412,189,1,0,0,1,0,"signal1",3,3,3,"correct",1,0.8,0.625510531844134,-0.590213291435877,0.0740877942772706,-0.364563116787739,0.11105316410795,2,2,92,44,84,93,135,221,10,11,NA,NA
13,1,82," S4-20.jpg",2," [10 144 240]"," blue","congruent",441,2,1,6.4316,3,1.0785,6.4326,80,41,79,0.6979,0,99,159,2,0,0,0,1,"signal2",1,1,1,"correct",1,0.8,1.86122334088812,1.36511002526602,0.0740877942772706,0.075571186847074,0.635731291161723,4,2,108,35,138,109,142,282,9,8,64,66
13,1,83," S4-20.jpg",2," [10 144 240]"," blue","congruent",334,2,1,4.8117,3,0.2043,4.8125,78,26,131,0.6979,1,206,209,2,0,0,0,1,"signal2",1,4,4,"correct",1,0.8,1.5710504520293,0.905956562335302,0.0740877942772706,-1.58816577715856,-1.34758695278249,4,2,78,26,131,79,103,236,4,8,74,79
13,1,84," S3-12.jpg",1," [10 144 240]"," blue","incongruent",310,1,1,4.4731,2,0.3691,4.474,195,35,108,0.778,0,230,303,2,0,1,0,0,"noise2",4,4,4,"correct",0,0.2,1.4980816805612,0.79049483109933,-1.31770434107432,-0.996687668946184,-0.642493931294966,3,2,122,38,86,123,159,247,11,7,83,64
13,1,86," S3-12.jpg",1," [240 37 33]"," red","congruent",180,1,1,2.5956,2,0.3821,2.5964,115,57,88,0.778,0,360,203,1,0,1,0,0,"noise2",4,2,3,"correct",1,0.8,0.953817703764876,-0.0707182569919681,-1.31770434107432,-0.962072924529283,-0.601230164487611,2,2,91,27,112,92,117,231,7,6,NA,NA
