subID,block,trial,targetImg,targetIdx,cue_rgb,cue_string,congruent,respFrame,response,accuracy,RT,confResp,confRT,flickerDuration,noise1frames,signal1frames,noise2frames,coherence,catch_trial
 20, 1, 1, S3-12.jpg, 1, [181 10 240], purple, 1, 72, 1, 1, 1.3199, 2, 1.7035, 1.3266,89,25,87,0.7746,0
 20, 1, 2, S4-20.jpg, 2, [10 240 94], green, 1, 208, 2, 1, 3.7202, 3, 1.8732, 3.7209,91,31,104,0.7764,0
 20, 1, 3, S4-20.jpg, 2, [10 240 94], green, 1, 92, 2, 1, 1.6820, 3, 0.5957, 1.6828,89,27,80,0.7764,0
 20, 1, 4, S3-12.jpg, 1, [10 240 94], green, 0, 128, 2, 0, 2.2958, 3, 1.0165, 2.2967,139,31,85,0.7746,0
 20, 1, 5, S4-20.jpg, 2, [10 240 94], green, 1, 269, 1, 0, 4.8563, 2, 0.4465, 4.8577,138,25,81,0.7764,0
 20, 1, 6, S3-12.jpg, 1, [10 240 94], green, 0, 226, 2, 0, 4.0789, 3, 0.7922, 4.0797,79,33,86,0.7746,0
 20, 1, 7, S4-20.jpg, 2, [10 240 94], green, 1, 41, 2, 1, 0.7349, 3, 0.5131, 0.7357,96,27,76,0.7764,0
 20, 1, 8, S4-20.jpg, 2, [10 240 94], green, 1, 61, 2, 1, 1.1156, 3, 0.3349, 1.1164,94,51,88,0.7764,0
 20, 1, 9, S4-20.jpg, 2, [10 240 94], green, 1, 44, 2, 1, 0.8375, 3, 0.3918, 0.8384,86,58,90,0.7764,0
 20, 1, 10, S3-12.jpg, 1, [181 10 240], purple, 1, 89, 1, 1, 1.6100, 3, 0.3853, 1.6107,127,36,113,0.7746,1
 20, 1, 11, S4-20.jpg, 2, [10 240 94], green, 1, 42, 2, 1, 0.8047, 3, 0.3455, 0.8062,84,62,83,0.7764,0
 20, 1, 12, S3-12.jpg, 1, [181 10 240], purple, 1, 33, 1, 1, 0.6155, 3, 0.4988, 0.6163,77,38,78,0.7746,0
 20, 1, 13, S4-20.jpg, 2, [10 240 94], green, 1, 52, 2, 1, 0.9433, 3, 0.5292, 0.9443,107,26,90,0.7764,0
 20, 1, 14, S4-20.jpg, 2, [10 240 94], green, 1, 58, 2, 1, 1.0685, 3, 0.3681, 1.0692,104,38,102,0.7764,0
 20, 1, 15, S3-12.jpg, 1, [240 168 10], orange, NaN, 67, 2, 0, 1.2402, 2, 1.0964, 1.2410,81,53,77,0.7746,0
 20, 1, 16, S3-12.jpg, 1, [240 168 10], orange, NaN, 168, 1, 1, 3.0396, 2, 0.4509, 3.0405,95,81,82,0.7746,0
 20, 1, 17, S3-12.jpg, 1, [240 168 10], orange, NaN, 139, 1, 1, 2.5219, 2, 0.4115, 2.5226,103,31,76,0.7746,0
 20, 1, 18, S3-12.jpg, 1, [181 10 240], purple, 1, 109, 1, 1, 1.9687, 3, 0.4287, 1.9694,103,41,76,0.7746,0
 20, 1, 19, S3-12.jpg, 1, [181 10 240], purple, 1, 114, 1, 1, 2.0799, 3, 0.3044, 2.0814,79,24,79,0.7746,0
 20, 1, 20, S4-20.jpg, 2, [181 10 240], purple, 0, 47, 1, 0, 0.8938, 3, 0.2489, 0.8945,110,41,89,0.7764,0
 20, 1, 21, S3-12.jpg, 1, [240 168 10], orange, NaN, 64, 1, 1, 1.1776, 3, 1.0292, 1.1784,82,29,94,0.7746,0
 20, 1, 22, S3-12.jpg, 1, [240 168 10], orange, NaN, 99, 1, 1, 1.7960, 3, 1.2996, 1.7967,93,26,80,0.7746,0
 20, 1, 23, S3-12.jpg, 1, [240 168 10], orange, NaN, 110, 1, 1, 2.0206, 3, 0.9651, 2.0213,136,74,93,0.7746,0
 20, 1, 24, S3-12.jpg, 1, [181 10 240], purple, 1, 54, 1, 1, 1.0351, 4, 1.1658, 1.0361,82,53,85,0.7746,0
 20, 1, 25, S3-12.jpg, 1, [181 10 240], purple, 1, 87, 1, 1, 1.5983, 4, 1.1124, 1.5990,86,87,102,0.7746,0
 20, 1, 26, S3-12.jpg, 1, [10 240 94], green, 0, 94, 2, 0, 1.6945, 3, 0.8003, 1.6953,76,49,83,0.7746,0
 20, 1, 27, S3-12.jpg, 1, [181 10 240], purple, 1, 66, 1, 1, 1.2018, 4, 0.6795, 1.2027,116,35,77,0.7746,0
 20, 1, 28, S4-20.jpg, 2, [181 10 240], purple, 0, 62, 1, 0, 1.1286, 4, 0.2159, 1.1295,80,57,82,0.7764,0
 20, 1, 29, S4-20.jpg, 2, [10 240 94], green, 1, 71, 2, 1, 1.3152, 3, 1.3293, 1.3160,99,61,85,0.7764,0
 20, 1, 30, S4-20.jpg, 2, [10 240 94], green, 1, 28, 2, 1, 0.4793, 3, 0.2891, 0.4802,90,91,86,0.7764,0
 20, 1, 31, S3-12.jpg, 1, [240 168 10], orange, NaN, 127, 2, 0, 2.3134, 2, 0.6238, 2.3142,128,44,95,0.7746,1
 20, 1, 32, S3-12.jpg, 1, [181 10 240], purple, 1, 72, 1, 1, 1.3300, 3, 0.3434, 1.3308,78,143,99,0.7746,0
 20, 1, 33, S4-20.jpg, 2, [181 10 240], purple, 0, 146, 1, 0, 2.6287, 3, 0.2568, 2.6296,95,24,83,0.7764,0
 20, 1, 34, S3-12.jpg, 1, [240 168 10], orange, NaN, 120, 2, 0, 2.1364, 3, 0.2481, 2.1371,94,62,85,0.7746,0
 20, 1, 35, S4-20.jpg, 2, [10 240 94], green, 1, 53, 2, 1, 0.9603, 4, 0.4712, 0.9612,87,23,85,0.7764,0
 20, 1, 36, S3-12.jpg, 1, [240 168 10], orange, NaN, 155, 2, 0, 2.8178, 3, 0.4845, 2.8185,91,27,112,0.7746,0
 20, 1, 37, S3-12.jpg, 1, [181 10 240], purple, 1, 104, 1, 1, 1.9044, 3, 0.2517, 1.9054,120,26,89,0.7746,0
 20, 1, 38, S3-12.jpg, 1, [181 10 240], purple, 1, 50, 1, 1, 0.9417, 3, 0.2268, 0.9425,84,33,108,0.7746,0
 20, 1, 39, S3-12.jpg, 1, [181 10 240], purple, 1, 39, 1, 1, 0.7146, 3, 0.0004, 0.7165,76,32,102,0.7746,0
 20, 1, 40, S4-20.jpg, 2, [10 240 94], green, 1, 49, 2, 1, 0.9422, 3, 0.0703, 0.9430,78,28,79,0.7764,0
 20, 1, 41, S3-12.jpg, 1, [240 168 10], orange, NaN, 138, 1, 1, 2.4921, 1, 1.5348, 2.4929,102,37,106,0.7746,0
 20, 1, 42, S4-20.jpg, 2, [10 240 94], green, 1, 100, 2, 1, 1.8049, 4, 0.5131, 1.8057,76,27,94,0.7764,0
 20, 1, 43, S4-20.jpg, 2, [10 240 94], green, 1, 54, 2, 1, 1.0091, 4, 0.3306, 1.0103,141,54,84,0.7764,0
 20, 1, 44, S3-12.jpg, 1, [181 10 240], purple, 1, 85, 2, 0, 1.5531, 4, 0.6723, 1.5540,112,27,96,0.7746,0
 20, 1, 45, S4-20.jpg, 2, [10 240 94], green, 1, 148, 2, 1, 2.6790, 1, 1.1525, 2.6797,89,40,123,0.7764,0
 20, 1, 46, S4-20.jpg, 2, [10 240 94], green, 1, 44, 1, 0, 0.7865, 3, 0.5951, 0.7872,82,35,79,0.7764,1
 20, 1, 47, S3-12.jpg, 1, [240 168 10], orange, NaN, 56, 1, 1, 1.0269, 3, 0.2502, 1.0277,75,28,103,0.7746,0
 20, 1, 48, S3-12.jpg, 1, [10 240 94], green, 0, 15, 2, 0, 0.2626, 3, 0.2297, 0.2635,76,30,80,0.7746,0
 20, 1, 49, S3-12.jpg, 1, [181 10 240], purple, 1, 53, 1, 1, 0.9493, 3, 0.0002, 0.9503,106,64,100,0.7746,0
 20, 1, 50, S3-12.jpg, 1, [10 240 94], green, 0, 67, 2, 0, 1.2605, 3, 0.3310, 1.2614,81,31,78,0.7746,0
 20, 1, 51, S3-12.jpg, 1, [240 168 10], orange, NaN, 99, 2, 0, 1.7978, 2, 0.7020, 1.7988,116,36,97,0.7746,0
 20, 1, 52, S3-12.jpg, 1, [240 168 10], orange, NaN, 66, 1, 1, 1.2287, 3, 0.3614, 1.2295,105,29,134,0.7746,0
 20, 1, 53, S4-20.jpg, 2, [10 240 94], green, 1, 95, 1, 0, 1.6714, 2, 0.2167, 1.6721,81,55,108,0.7764,1
 20, 1, 54, S4-20.jpg, 2, [10 240 94], green, 1, 70, 2, 1, 1.2895, 3, 0.2123, 1.2903,86,35,95,0.7764,0
 20, 1, 55, S3-12.jpg, 1, [240 168 10], orange, NaN, 57, 2, 0, 1.0005, 3, 0.2023, 1.0013,90,43,80,0.7746,0
 20, 1, 56, S4-20.jpg, 2, [181 10 240], purple, 0, 69, 1, 0, 1.2676, 4, 0.9434, 1.2690,84,25,120,0.7764,0
 20, 1, 57, S4-20.jpg, 2, [10 240 94], green, 1, 71, 1, 0, 1.2809, 2, 0.4625, 1.2828,76,24,78,0.7764,0
 20, 1, 58, S3-12.jpg, 1, [240 168 10], orange, NaN, 63, 1, 1, 1.1292, 2, 0.3184, 1.1303,78,56,86,0.7746,0
 20, 1, 59, S3-12.jpg, 1, [181 10 240], purple, 1, 96, 1, 1, 1.7270, 1, 0.3890, 1.7277,83,33,97,0.7746,0
 20, 1, 60, S3-12.jpg, 1, [10 240 94], green, 0, 36, 2, 0, 0.6563, 3, 0.2566, 0.6571,118,30,93,0.7746,0
 20, 1, 61, S3-12.jpg, 1, [181 10 240], purple, 1, 160, 2, 0, 2.8551, 3, 0.6399, 2.8565,82,37,84,0.7746,0
 20, 1, 62, S3-12.jpg, 1, [181 10 240], purple, 1, 100, 1, 1, 1.8176, 2, 0.7738, 1.8185,106,48,77,0.7746,0
 20, 1, 63, S4-20.jpg, 2, [181 10 240], purple, 0, 83, 1, 0, 1.5049, 3, 0.2560, 1.5064,80,23,128,0.7764,1
 20, 1, 64, S3-12.jpg, 1, [181 10 240], purple, 1, 186, 2, 0, 3.3580, 3, 0.3131, 3.3588,79,47,91,0.7746,0
 20, 1, 65, S3-12.jpg, 1, [181 10 240], purple, 1, 190, 2, 0, 3.4658, 3, 0.2884, 3.4665,109,45,91,0.7746,0
 20, 1, 66, S4-20.jpg, 2, [10 240 94], green, 1, 72, 1, 0, 1.3033, 2, 0.4489, 1.3048,80,39,77,0.7764,0
 20, 1, 67, S3-12.jpg, 1, [181 10 240], purple, 1, 164, 2, 0, 2.9457, 3, 0.3281, 2.9464,118,30,83,0.7746,1
 20, 1, 68, S4-20.jpg, 2, [10 240 94], green, 1, 48, 2, 1, 0.8495, 3, 0.2570, 0.8502,85,28,91,0.7764,0
 20, 1, 69, S4-20.jpg, 2, [10 240 94], green, 1, 60, 2, 1, 1.1206, 1, 1.4083, 1.1213,78,28,80,0.7764,0
 20, 1, 70, S3-12.jpg, 1, [10 240 94], green, 0, 110, 1, 1, 1.9813, 1, 0.8656, 1.9822,113,61,87,0.7746,0
 20, 1, 71, S3-12.jpg, 1, [240 168 10], orange, NaN, 77, 2, 0, 1.3934, 3, 0.6789, 1.3942,114,25,79,0.7746,0
 20, 1, 72, S4-20.jpg, 2, [10 240 94], green, 1, 82, 2, 1, 1.4952, 4, 0.5336, 1.4960,100,44,117,0.7764,0
 20, 1, 73, S4-20.jpg, 2, [10 240 94], green, 1, 66, 2, 1, 1.1909, 4, 0.3846, 1.1918,96,75,82,0.7764,0
 20, 1, 74, S3-12.jpg, 1, [10 240 94], green, 0, 27, 2, 0, 0.4600, 4, 0.3025, 0.4607,106,25,87,0.7746,1
 20, 1, 75, S4-20.jpg, 2, [10 240 94], green, 1, 159, 1, 0, 2.8570, 2, 0.7197, 2.8578,131,88,76,0.7764,0
 20, 1, 76, S3-12.jpg, 1, [181 10 240], purple, 1, 142, 2, 0, 2.5536, 3, 0.9492, 2.5544,87,34,89,0.7746,0
 20, 1, 77, S3-12.jpg, 1, [240 168 10], orange, NaN, 82, 1, 1, 1.5226, 4, 0.8156, 1.5233,101,47,86,0.7746,0
 20, 1, 78, S4-20.jpg, 2, [10 240 94], green, 1, 99, 1, 0, 1.8199, 1, 0.4294, 1.8208,93,25,81,0.7764,0
 20, 1, 79, S3-12.jpg, 1, [240 168 10], orange, NaN, 82, 1, 1, 1.5289, 4, 0.3818, 1.5296,107,36,90,0.7746,0
 20, 1, 80, S3-12.jpg, 1, [181 10 240], purple, 1, 161, 1, 1, 2.9204, 4, 0.2652, 2.9214,102,31,125,0.7746,0
 20, 1, 81, S4-20.jpg, 2, [10 240 94], green, 1, 170, 2, 1, 3.0487, 4, 0.6456, 3.0495,94,40,95,0.7764,0
 20, 1, 82, S3-12.jpg, 1, [10 240 94], green, 0, 33, 2, 0, 0.5797, 4, 0.2589, 0.5805,80,41,79,0.7746,0
 20, 1, 83, S4-20.jpg, 2, [10 240 94], green, 1, 60, 2, 1, 1.1051, 4, 0.2435, 1.1058,78,26,131,0.7764,0
 20, 1, 84, S3-12.jpg, 1, [181 10 240], purple, 1, 57, 1, 1, 1.0018, 4, 0.2313, 1.0025,195,35,108,0.7746,0
 20, 1, 85, S4-20.jpg, 2, [10 240 94], green, 1, 53, 2, 1, 0.9630, 4, 0.1677, 0.9639,83,45,77,0.7764,0
 20, 1, 86, S3-12.jpg, 1, [181 10 240], purple, 1, 30, 1, 1, 0.5729, 4, 0.2417, 0.5738,115,57,88,0.7746,0
 20, 1, 87, S3-12.jpg, 1, [240 168 10], orange, NaN, 78, 1, 1, 1.4018, 3, 0.3451, 1.4033,77,32,133,0.7746,0
 20, 1, 88, S3-12.jpg, 1, [181 10 240], purple, 1, 51, 1, 1, 0.9326, 4, 0.0776, 0.9333,79,35,136,0.7746,0
 20, 1, 89, S3-12.jpg, 1, [181 10 240], purple, 1, 34, 1, 1, 0.6502, 4, 0.2237, 0.6509,86,23,105,0.7746,0
 20, 1, 90, S3-12.jpg, 1, [181 10 240], purple, 1, 31, 1, 1, 0.5513, 4, 0.0967, 0.5521,130,26,90,0.7746,0
 20, 1, 91, S3-12.jpg, 1, [10 240 94], green, 0, 54, 2, 0, 1.0034, 4, 0.2436, 1.0041,93,28,94,0.7746,0
 20, 1, 92, S3-12.jpg, 1, [181 10 240], purple, 1, 35, 1, 1, 0.6770, 4, 0.1813, 0.6777,84,63,75,0.7746,0
 20, 1, 93, S3-12.jpg, 1, [10 240 94], green, 0, 24, 2, 0, 0.3987, 4, 0.1652, 0.3995,86,33,142,0.7746,0
 20, 1, 94, S3-12.jpg, 1, [240 168 10], orange, NaN, 69, 1, 1, 1.3142, 3, 0.0476, 1.3150,81,40,87,0.7746,0
 20, 1, 95, S4-20.jpg, 2, [10 240 94], green, 1, 42, 2, 1, 0.7467, 4, 0.0483, 0.7477,78,40,93,0.7764,0
 20, 1, 96, S3-12.jpg, 1, [10 240 94], green, 0, 143, 2, 0, 2.5988, 3, 0.7029, 2.5997,82,64,78,0.7746,0
 20, 1, 97, S4-20.jpg, 2, [10 240 94], green, 1, 56, 2, 1, 1.0507, 4, 0.5451, 1.0515,107,24,92,0.7764,0
 20, 1, 98, S4-20.jpg, 2, [181 10 240], purple, 0, 34, 1, 0, 0.6186, 4, 0.2417, 0.6193,99,39,83,0.7764,0
 20, 1, 99, S4-20.jpg, 2, [10 240 94], green, 1, 72, 2, 1, 1.2999, 4, 0.4269, 1.3006,78,25,103,0.7764,0
 20, 1, 100, S3-12.jpg, 1, [10 240 94], green, 0, 63, 2, 0, 1.1655, 4, 0.3308, 1.1663,81,32,100,0.7746,0
 20, 1, 101, S3-12.jpg, 1, [181 10 240], purple, 1, 109, 2, 0, 1.9772, 3, 0.9981, 1.9786,85,32,78,0.7746,0
 20, 1, 102, S4-20.jpg, 2, [10 240 94], green, 1, 47, 2, 1, 0.9003, 4, 0.5122, 0.9011,108,68,80,0.7764,0
 20, 1, 103, S3-12.jpg, 1, [240 168 10], orange, NaN, 85, 1, 1, 1.5610, 3, 0.2618, 1.5622,80,39,127,0.7746,0
 20, 1, 104, S4-20.jpg, 2, [10 240 94], green, 1, 35, 2, 1, 0.6329, 4, 0.2012, 0.6338,95,50,83,0.7764,1
 20, 1, 105, S4-20.jpg, 2, [10 240 94], green, 1, 35, 2, 1, 0.6443, 2, 0.5357, 0.6450,79,59,90,0.7764,0
 20, 1, 106, S3-12.jpg, 1, [181 10 240], purple, 1, 58, 1, 1, 1.0706, 4, 0.3271, 1.0715,76,28,124,0.7746,0
 20, 1, 107, S4-20.jpg, 2, [10 240 94], green, 1, 30, 2, 1, 0.5309, 4, 0.2691, 0.5317,87,52,115,0.7764,0
 20, 1, 108, S4-20.jpg, 2, [10 240 94], green, 1, 30, 2, 1, 0.5388, 4, 0.1644, 0.5397,110,34,77,0.7764,0
 20, 1, 109, S3-12.jpg, 1, [240 168 10], orange, NaN, 54, 2, 0, 0.9812, 3, 0.2311, 0.9822,85,53,79,0.7746,0
 20, 1, 110, S4-20.jpg, 2, [181 10 240], purple, 0, 40, 1, 0, 0.7316, 4, 0.2244, 0.7331,142,40,94,0.7764,0
 20, 1, 111, S3-12.jpg, 1, [181 10 240], purple, 1, 30, 1, 1, 0.5489, 4, 0.0002, 0.5497,87,56,98,0.7746,0
 20, 1, 112, S3-12.jpg, 1, [181 10 240], purple, 1, 37, 1, 1, 0.7304, 4, 0.3475, 0.7313,123,72,99,0.7746,0
 20, 1, 113, S3-12.jpg, 1, [181 10 240], purple, 1, 29, 1, 1, 0.5152, 4, 0.0003, 0.5160,83,29,98,0.7746,0
 20, 1, 114, S3-12.jpg, 1, [181 10 240], purple, 1, 26, 1, 1, 0.4549, 4, 0.2531, 0.4558,94,33,82,0.7746,0
 20, 1, 115, S4-20.jpg, 2, [181 10 240], purple, 0, 71, 1, 0, 1.2759, 4, 0.4411, 1.2774,92,65,76,0.7764,0
 20, 1, 116, S3-12.jpg, 1, [181 10 240], purple, 1, 51, 1, 1, 0.9355, 3, 0.7617, 0.9364,100,55,77,0.7746,1
 20, 1, 117, S4-20.jpg, 2, [10 240 94], green, 1, 47, 2, 1, 0.8602, 3, 0.2563, 0.8610,89,29,87,0.7764,0
 20, 1, 118, S3-12.jpg, 1, [181 10 240], purple, 1, 51, 1, 1, 0.9380, 3, 0.2306, 0.9388,77,24,91,0.7746,0
 20, 1, 119, S3-12.jpg, 1, [240 168 10], orange, NaN, 101, 2, 0, 1.8134, 3, 0.3413, 1.8143,140,42,88,0.7746,0
 20, 1, 120, S3-12.jpg, 1, [10 240 94], green, 0, 34, 2, 0, 0.6297, 3, 0.1895, 0.6304,84,76,113,0.7746,0
 20, 1, 121, S3-12.jpg, 1, [10 240 94], green, 0, 83, 2, 0, 1.4937, 3, 1.2625, 1.4945,81,24,91,0.7746,0
 20, 1, 122, S4-20.jpg, 2, [10 240 94], green, 1, 46, 2, 1, 0.8666, 3, 0.2982, 0.8675,100,43,100,0.7764,0
 20, 1, 123, S3-12.jpg, 1, [10 240 94], green, 0, 138, 2, 0, 2.4805, 2, 1.4359, 2.4814,96,38,132,0.7746,0
 20, 1, 124, S3-12.jpg, 1, [181 10 240], purple, 1, 49, 1, 1, 0.8500, 3, 0.3116, 0.8510,120,66,99,0.7746,0
 20, 1, 125, S4-20.jpg, 2, [181 10 240], purple, 0, 43, 1, 0, 0.7454, 4, 1.4782, 0.7463,119,29,81,0.7764,0
 20, 1, 126, S4-20.jpg, 2, [10 240 94], green, 1, 136, 2, 1, 2.3936, 4, 0.3562, 2.3946,82,25,143,0.7764,1
 20, 1, 127, S4-20.jpg, 2, [10 240 94], green, 1, 42, 2, 1, 0.7910, 4, 0.2526, 0.7920,76,30,78,0.7764,0
 20, 1, 128, S3-12.jpg, 1, [181 10 240], purple, 1, 59, 1, 1, 1.0840, 4, 0.2935, 1.0848,79,32,87,0.7746,0
 20, 1, 129, S3-12.jpg, 1, [240 168 10], orange, NaN, 92, 1, 1, 1.6899, 1, 0.5982, 1.6906,96,73,88,0.7746,0
 20, 1, 130, S3-12.jpg, 1, [181 10 240], purple, 1, 163, 2, 0, 2.9586, 3, 0.4647, 2.9595,81,35,120,0.7746,0
 20, 1, 131, S4-20.jpg, 2, [10 240 94], green, 1, 37, 2, 1, 0.6925, 4, 0.1123, 0.6933,108,35,138,0.7764,0
 20, 1, 132, S3-12.jpg, 1, [181 10 240], purple, 1, 63, 1, 1, 1.1509, 4, 0.3101, 1.1520,88,67,95,0.7746,0
 20, 1, 133, S3-12.jpg, 1, [181 10 240], purple, 1, 79, 1, 1, 1.4482, 3, 0.2396, 1.4491,77,36,110,0.7746,0
 20, 1, 134, S4-20.jpg, 2, [181 10 240], purple, 0, 53, 1, 0, 0.9455, 4, 0.2801, 0.9462,87,37,85,0.7764,0
 20, 1, 135, S4-20.jpg, 2, [10 240 94], green, 1, 44, 2, 1, 0.7654, 4, 0.2301, 0.7662,109,40,101,0.7764,0
 20, 1, 136, S4-20.jpg, 2, [10 240 94], green, 1, 139, 2, 1, 2.5232, 4, 0.2718, 2.5240,76,28,82,0.7764,0
 20, 1, 137, S3-12.jpg, 1, [240 168 10], orange, NaN, 158, 2, 0, 2.8515, 4, 0.2035, 2.8522,77,57,114,0.7746,0
 20, 1, 138, S3-12.jpg, 1, [240 168 10], orange, NaN, 195, 2, 0, 3.5234, 4, 0.2316, 3.5242,78,37,80,0.7746,0
 20, 1, 139, S4-20.jpg, 2, [181 10 240], purple, 0, 134, 1, 0, 2.4121, 4, 0.4621, 2.4131,82,80,92,0.7764,0
 20, 1, 140, S4-20.jpg, 2, [10 240 94], green, 1, 138, 2, 1, 2.4778, 4, 0.2566, 2.4793,129,56,83,0.7764,0
 20, 1, 141, S4-20.jpg, 2, [240 168 10], orange, NaN, 131, 2, 1, 2.3552, 4, 0.2408, 2.3562,93,42,139,0.7764,0
 20, 1, 142, S3-12.jpg, 1, [240 168 10], orange, NaN, 110, 2, 0, 1.9702, 4, 0.4006, 1.9709,77,25,84,0.7746,1
 20, 1, 143, S4-20.jpg, 2, [10 240 94], green, 1, 354, 2, 1, 6.3714, 4, 0.1553, 6.3723,86,31,77,0.7764,0
 20, 1, 144, S4-20.jpg, 2, [10 240 94], green, 1, 131, 2, 1, 2.3695, 4, 0.1978, 2.3703,75,30,96,0.7764,0
 20, 1, 145, S3-12.jpg, 1, [181 10 240], purple, 1, 190, 2, 0, 3.3974, 3, 0.5349, 3.3988,81,143,141,0.7746,1
 20, 1, 146, S3-12.jpg, 1, [181 10 240], purple, 1, 235, 1, 1, 4.2408, 4, 0.2412, 4.2423,112,58,95,0.7746,0
 20, 1, 147, S4-20.jpg, 2, [10 240 94], green, 1, 246, 2, 1, 4.3997, 4, 0.2558, 4.4011,75,25,135,0.7764,0
 20, 1, 148, S4-20.jpg, 2, [240 168 10], orange, NaN, 137, 2, 1, 2.4668, 4, 0.2427, 2.4676,87,28,78,0.7764,0
 20, 1, 149, S3-12.jpg, 1, [181 10 240], purple, 1, 182, 2, 0, 3.2677, 3, 0.3834, 3.2687,93,29,101,0.7746,0
 20, 1, 150, S3-12.jpg, 1, [181 10 240], purple, 1, 79, 1, 1, 1.4393, 4, 0.2143, 1.4401,77,51,81,0.7746,0
 20, 1, 151, S3-12.jpg, 1, [181 10 240], purple, 1, 148, 2, 0, 2.6638, 4, 0.2439, 2.6645,77,26,84,0.7746,0
 20, 1, 152, S3-12.jpg, 1, [181 10 240], purple, 1, 251, 2, 0, 4.4786, 3, 0.2003, 4.4795,117,25,97,0.7746,0
 20, 1, 153, S3-12.jpg, 1, [181 10 240], purple, 1, 94, 1, 1, 1.7679, 4, 0.9112, 1.7687,76,50,86,0.7746,0
 20, 1, 154, S3-12.jpg, 1, [181 10 240], purple, 1, 272, 1, 1, 4.8767, 3, 0.8732, 4.8780,77,68,106,0.7746,0
 20, 1, 155, S3-12.jpg, 1, [181 10 240], purple, 1, 86, 1, 1, 1.5499, 3, 0.2079, 1.5513,97,42,103,0.7746,0
 20, 1, 156, S3-12.jpg, 1, [181 10 240], purple, 1, 29, 1, 1, 0.5212, 3, 0.0002, 0.5219,104,67,77,0.7746,0
 20, 1, 157, S4-20.jpg, 2, [10 240 94], green, 1, 43, 2, 1, 0.8113, 3, 0.3848, 0.8122,78,43,79,0.7764,0
 20, 1, 158, S3-12.jpg, 1, [181 10 240], purple, 1, 109, 1, 1, 2.0515, 4, 0.2322, 2.0525,98,33,111,0.7746,0
 20, 1, 159, S4-20.jpg, 2, [10 240 94], green, 1, 154, 2, 1, 2.8112, 4, 0.1667, 2.8122,88,29,78,0.7764,0
 20, 1, 160, S3-12.jpg, 1, [181 10 240], purple, 1, 85, 2, 0, 1.5911, 4, 0.2006, 1.5920,90,55,107,0.7746,1
 20, 1, 161, S3-12.jpg, 1, [181 10 240], purple, 1, 314, 2, 0, 5.6459, 3, 0.3514, 5.6469,104,26,75,0.7746,0
 20, 1, 162, S4-20.jpg, 2, [10 240 94], green, 1, 135, 2, 1, 2.4538, 4, 0.0388, 2.4547,82,69,100,0.7764,0
 20, 1, 163, S4-20.jpg, 2, [240 168 10], orange, NaN, 307, 2, 1, 5.3173, 4, 0.3308, 5.3182,75,60,99,0.7764,0
 20, 1, 164, S4-20.jpg, 2, [240 168 10], orange, NaN, 196, 1, 0, 3.5264, 3, 1.4974, 3.5271,79,32,79,0.7764,0
 20, 1, 165, S3-12.jpg, 1, [181 10 240], purple, 1, 135, 2, 0, 2.5417, 1, 1.5601, 2.5426,133,34,105,0.7746,0
 20, 1, 166, S4-20.jpg, 2, [240 168 10], orange, NaN, 172, 1, 0, 3.1001, 4, 0.2534, 3.1010,88,23,89,0.7764,0
 20, 1, 167, S4-20.jpg, 2, [181 10 240], purple, 0, 124, 1, 0, 2.2545, 4, 0.2173, 2.2560,79,86,107,0.7764,0
 20, 1, 168, S4-20.jpg, 2, [10 240 94], green, 1, 149, 2, 1, 2.7237, 4, 0.2437, 2.7244,77,29,81,0.7764,0
 20, 1, 169, S4-20.jpg, 2, [10 240 94], green, 1, 126, 2, 1, 2.2522, 4, 0.2559, 2.2530,78,78,81,0.7764,0
 20, 1, 170, S3-12.jpg, 1, [181 10 240], purple, 1, 92, 1, 1, 1.6883, 4, 0.2263, 1.6890,117,48,75,0.7746,0
 20, 1, 171, S4-20.jpg, 2, [240 168 10], orange, NaN, 104, 1, 0, 1.8818, 4, 0.3667, 1.8830,76,54,126,0.7764,0
 20, 1, 172, S4-20.jpg, 2, [240 168 10], orange, NaN, 279, 2, 1, 5.0447, 3, 0.4717, 5.0455,98,34,90,0.7764,0
 20, 1, 173, S4-20.jpg, 2, [240 168 10], orange, NaN, 271, 1, 0, 4.8728, 3, 0.4991, 4.8737,137,44,103,0.7764,0
 20, 1, 174, S4-20.jpg, 2, [10 240 94], green, 1, 109, 2, 1, 2.0205, 4, 0.2128, 2.0212,97,34,94,0.7764,0
 20, 1, 175, S3-12.jpg, 1, [181 10 240], purple, 1, 98, 1, 1, 1.7639, 4, 0.1415, 1.7649,86,27,75,0.7746,0
 20, 1, 176, S4-20.jpg, 2, [181 10 240], purple, 0, 227, 1, 0, 4.0718, 4, 0.1584, 4.0726,82,26,117,0.7764,0
 20, 1, 177, S4-20.jpg, 2, [240 168 10], orange, NaN, 378, 2, 1, 6.8158, 4, 0.4457, 6.8166,87,38,84,0.7764,0
 20, 1, 178, S4-20.jpg, 2, [181 10 240], purple, 0, 71, 1, 0, 1.2849, 4, 0.2078, 1.2856,79,48,101,0.7764,0
 20, 1, 179, S4-20.jpg, 2, [181 10 240], purple, 0, 183, 1, 0, 3.2818, 4, 0.1892, 3.2827,90,31,80,0.7764,1
 20, 1, 180, S4-20.jpg, 2, [10 240 94], green, 1, 122, 2, 1, 2.2187, 4, 0.4409, 2.2198,134,37,102,0.7764,0
 20, 1, 181, S3-12.jpg, 1, [181 10 240], purple, 1, 107, 1, 1, 1.9317, 4, 0.4479, 1.9325,84,26,107,0.7746,0
 20, 1, 182, S3-12.jpg, 1, [181 10 240], purple, 1, 55, 1, 1, 1.0467, 4, 0.5640, 1.0477,96,37,129,0.7746,0
 20, 1, 183, S4-20.jpg, 2, [10 240 94], green, 1, 157, 1, 0, 2.8490, 3, 0.1814, 2.8500,80,36,79,0.7764,0
 20, 1, 184, S3-12.jpg, 1, [181 10 240], purple, 1, 127, 1, 1, 2.2805, 4, 0.0002, 2.2815,105,47,90,0.7746,0
 20, 1, 185, S3-12.jpg, 1, [181 10 240], purple, 1, 44, 1, 1, 0.7947, 4, 0.2357, 0.7955,84,35,82,0.7746,0
 20, 1, 186, S3-12.jpg, 1, [181 10 240], purple, 1, 79, 1, 1, 1.4234, 4, 0.1922, 1.4243,89,59,96,0.7746,0
 20, 1, 187, S4-20.jpg, 2, [240 168 10], orange, NaN, 185, 1, 0, 3.3140, 4, 0.0675, 3.3149,95,89,91,0.7764,0
 20, 1, 188, S4-20.jpg, 2, [181 10 240], purple, 0, 218, 1, 0, 3.9669, 4, 0.1055, 3.9678,90,31,84,0.7764,0
 20, 1, 189, S3-12.jpg, 1, [181 10 240], purple, 1, 86, 1, 1, 1.5639, 4, 0.3591, 1.5653,91,28,86,0.7746,0
 20, 1, 190, S4-20.jpg, 2, [10 240 94], green, 1, 167, 2, 1, 2.9845, 4, 0.4817, 2.9855,98,79,111,0.7764,1
 20, 1, 191, S3-12.jpg, 1, [10 240 94], green, 0, 408, 2, 0, 7.3548, 4, 0.2972, 7.3555,75,34,79,0.7746,0
 20, 1, 192, S3-12.jpg, 1, [181 10 240], purple, 1, 171, 1, 1, 3.0798, 4, 0.2968, 3.0806,80,47,104,0.7746,0
 20, 1, 193, S4-20.jpg, 2, [10 240 94], green, 1, 85, 2, 1, 1.5762, 4, 0.5897, 1.5778,126,26,81,0.7764,1
 20, 1, 194, S4-20.jpg, 2, [10 240 94], green, 1, 96, 2, 1, 1.7518, 4, 0.2083, 1.7527,85,24,89,0.7764,0
 20, 1, 195, S4-20.jpg, 2, [181 10 240], purple, 0, 430, 2, 1, 7.7191, 3, 0.4293, 7.7200,132,50,76,0.7764,0
 20, 1, 196, S4-20.jpg, 2, [10 240 94], green, 1, 34, 2, 1, 0.6530, 4, 0.0492, 0.6537,105,33,81,0.7764,0
 20, 1, 197, S4-20.jpg, 2, [10 240 94], green, 1, 62, 2, 1, 1.1435, 4, 0.4150, 1.1443,88,34,87,0.7764,1
 20, 1, 198, S4-20.jpg, 2, [181 10 240], purple, 0, 36, 1, 0, 0.6520, 4, 0.0002, 0.6527,143,31,109,0.7764,0
 20, 1, 199, S4-20.jpg, 2, [240 168 10], orange, NaN, 275, 2, 1, 4.9262, 3, 0.1074, 4.9269,85,26,83,0.7764,0
 20, 1, 200, S4-20.jpg, 2, [10 240 94], green, 1, 36, 2, 1, 0.7041, 4, 0.0037, 0.7049,98,84,76,0.7764,0
 20, 1, 201, S4-20.jpg, 2, [240 168 10], orange, NaN, 273, 2, 1, 4.8896, 4, 0.0735, 4.8909,109,25,92,0.7764,0
 20, 1, 202, S3-12.jpg, 1, [181 10 240], purple, 1, 97, 1, 1, 1.8009, 4, 0.0003, 1.8024,103,27,77,0.7746,0
 20, 1, 203, S4-20.jpg, 2, [10 240 94], green, 1, 150, 2, 1, 2.6937, 4, 0.4278, 2.6947,89,44,75,0.7764,0
 20, 1, 204, S4-20.jpg, 2, [240 168 10], orange, NaN, 137, 2, 1, 2.4991, 4, 0.2378, 2.4998,115,58,78,0.7764,0
 20, 1, 205, S4-20.jpg, 2, [240 168 10], orange, NaN, 136, 2, 1, 2.4691, 4, 0.0002, 2.4698,103,49,82,0.7764,0
 20, 1, 206, S3-12.jpg, 1, [10 240 94], green, 0, 51, 2, 0, 0.9620, 4, 0.1196, 0.9633,92,63,85,0.7746,1
 20, 1, 207, S4-20.jpg, 2, [10 240 94], green, 1, 30, 2, 1, 0.5285, 4, 0.2599, 0.5292,87,51,86,0.7764,0
 20, 1, 208, S4-20.jpg, 2, [10 240 94], green, 1, 137, 2, 1, 2.4643, 4, 0.1915, 2.4657,94,27,80,0.7764,0
 20, 1, 209, S4-20.jpg, 2, [10 240 94], green, 1, 359, 2, 1, 6.4011, 4, 0.4722, 6.4018,83,83,114,0.7764,0
 20, 1, 210, S3-12.jpg, 1, [181 10 240], purple, 1, 58, 1, 1, 1.0941, 4, 0.2164, 1.0949,95,85,82,0.7746,1
 20, 1, 211, S4-20.jpg, 2, [10 240 94], green, 1, 42, 2, 1, 0.8192, 4, 0.1979, 0.8201,80,41,85,0.7764,0
 20, 1, 212, S3-12.jpg, 1, [181 10 240], purple, 1, 97, 1, 1, 1.7682, 4, 0.1042, 1.7692,89,29,84,0.7746,1
 20, 1, 213, S3-12.jpg, 1, [181 10 240], purple, 1, 164, 1, 1, 2.9727, 4, 0.0633, 2.9737,79,27,195,0.7746,0
 20, 1, 214, S4-20.jpg, 2, [10 240 94], green, 1, 44, 2, 1, 0.7641, 4, 0.1745, 0.7649,90,70,92,0.7764,0
 20, 1, 215, S4-20.jpg, 2, [181 10 240], purple, 0, 124, 1, 0, 2.2648, 4, 0.3260, 2.2657,79,30,106,0.7764,0
 20, 1, 216, S4-20.jpg, 2, [10 240 94], green, 1, 38, 2, 1, 0.6844, 4, 0.3419, 0.6851,82,24,77,0.7764,0
 20, 1, 217, S4-20.jpg, 2, [10 240 94], green, 1, 54, 2, 1, 0.9763, 4, 0.3045, 0.9772,78,33,81,0.7764,0
 20, 1, 218, S4-20.jpg, 2, [10 240 94], green, 1, 161, 2, 1, 2.9005, 4, 0.4093, 2.9014,88,36,88,0.7764,0
 20, 1, 219, S4-20.jpg, 2, [240 168 10], orange, NaN, 211, 1, 0, 3.7834, 3, 0.0659, 3.7842,83,41,93,0.7764,0
 20, 1, 220, S3-12.jpg, 1, [10 240 94], green, 0, 41, 2, 0, 0.7678, 2, 0.2372, 0.7688,97,52,137,0.7746,0
 20, 1, 221, S4-20.jpg, 2, [240 168 10], orange, NaN, 179, 2, 1, 3.2978, 4, 0.3129, 3.2990,92,24,119,0.7764,0
 20, 1, 222, S4-20.jpg, 2, [10 240 94], green, 1, 44, 2, 1, 0.8147, 4, 0.2516, 0.8158,83,30,109,0.7764,0
 20, 1, 223, S3-12.jpg, 1, [240 168 10], orange, NaN, 247, 2, 0, 4.4246, NaN, NaN, 4.4255,85,24,76,0.7746,1
 20, 1, 224, S4-20.jpg, 2, [10 240 94], green, 1, 36, 2, 1, 0.6448, 4, 0.2490, 0.6456,135,32,88,0.7764,0
 20, 1, 225, S4-20.jpg, 2, [240 168 10], orange, NaN, 242, 2, 1, 4.3252, 4, 0.3943, 4.3259,111,45,96,0.7764,0
 20, 1, 226, S3-12.jpg, 1, [181 10 240], purple, 1, 196, 2, 0, 3.5552, 3, 0.5802, 3.5561,83,66,80,0.7746,1
 20, 1, 227, S4-20.jpg, 2, [240 168 10], orange, NaN, 73, 2, 1, 1.2758, 3, 0.1301, 1.2767,122,38,86,0.7764,1
 20, 1, 228, S4-20.jpg, 2, [10 240 94], green, 1, 35, 2, 1, 0.6475, 4, 0.1951, 0.6485,88,36,121,0.7764,0
 20, 1, 229, S3-12.jpg, 1, [181 10 240], purple, 1, 67, 1, 1, 1.2007, 4, 0.1958, 1.2014,84,25,82,0.7746,0
 20, 1, 230, S4-20.jpg, 2, [240 168 10], orange, NaN, 224, 2, 1, 4.0349, 4, 0.3456, 4.0357,97,46,93,0.7764,0
 20, 1, 231, S3-12.jpg, 1, [181 10 240], purple, 1, 156, 1, 1, 2.7835, 2, 2.5647, 2.7842,97,51,92,0.7746,0
 20, 1, 232, S3-12.jpg, 1, [181 10 240], purple, 1, 44, 1, 1, 0.8346, 1, 0.5581, 0.8354,101,41,76,0.7746,0
 20, 1, 233, S3-12.jpg, 1, [181 10 240], purple, 1, 40, 1, 1, 0.7464, 4, 0.0656, 0.7473,124,45,110,0.7746,0
 20, 1, 234, S4-20.jpg, 2, [181 10 240], purple, 0, 34, 1, 0, 0.6457, 4, 0.4924, 0.6469,88,39,78,0.7764,0
 20, 1, 235, S4-20.jpg, 2, [10 240 94], green, 1, 30, 2, 1, 0.5490, 2, 0.2815, 0.5497,92,30,93,0.7764,0
 20, 1, 236, S3-12.jpg, 1, [181 10 240], purple, 1, 58, 1, 1, 1.0933, 4, 0.1519, 1.0940,92,44,84,0.7746,0
 20, 1, 237, S4-20.jpg, 2, [10 240 94], green, 1, 33, 2, 1, 0.6537, 4, 0.1988, 0.6544,195,71,115,0.7764,0
 20, 1, 238, S3-12.jpg, 1, [181 10 240], purple, 1, 67, 1, 1, 1.2394, 4, 0.1654, 1.2403,91,77,119,0.7746,0
 20, 1, 239, S3-12.jpg, 1, [181 10 240], purple, 1, 34, 1, 1, 0.6639, 4, 0.0110, 0.6646,113,32,78,0.7746,0
 20, 1, 240, S3-12.jpg, 1, [181 10 240], purple, 1, 69, 1, 1, 1.2302, 4, 0.3594, 1.2312,119,27,75,0.7746,0
 20, 1, 241, S3-12.jpg, 1, [181 10 240], purple, 1, 52, 1, 1, 0.8969, 4, 0.5165, 0.8979,86,48,79,0.7746,0
 20, 1, 242, S4-20.jpg, 2, [10 240 94], green, 1, 131, 1, 0, 2.3883, 1, 0.7512, 2.3892,114,46,89,0.7764,0
 20, 1, 243, S4-20.jpg, 2, [240 168 10], orange, NaN, 228, 2, 1, 4.1133, 4, 0.1905, 4.1143,85,43,80,0.7764,0
 20, 1, 244, S3-12.jpg, 1, [181 10 240], purple, 1, 51, 1, 1, 0.9373, 4, 0.1988, 0.9380,81,54,122,0.7746,0
 20, 1, 245, S3-12.jpg, 1, [10 240 94], green, 0, 86, 2, 0, 1.5919, 4, 1.3203, 1.5929,80,37,112,0.7746,0
 20, 1, 246, S4-20.jpg, 2, [240 168 10], orange, NaN, 153, 2, 1, 2.7548, 3, 1.8617, 2.7555,100,46,77,0.7764,1
 20, 1, 247, S3-12.jpg, 1, [181 10 240], purple, 1, 52, 1, 1, 0.8946, 4, 0.1196, 0.8955,101,38,105,0.7746,0
 20, 1, 248, S3-12.jpg, 1, [181 10 240], purple, 1, 36, 1, 1, 0.7088, 4, 0.0783, 0.7098,77,50,84,0.7746,0
 20, 1, 249, S4-20.jpg, 2, [181 10 240], purple, 0, 40, 1, 0, 0.6836, 4, 0.0793, 0.6845,77,52,83,0.7764,0
 20, 1, 250, S4-20.jpg, 2, [10 240 94], green, 1, 44, 2, 1, 0.8107, 4, 0.5796, 0.8115,93,29,98,0.7764,0
 20, 1, 251, S3-12.jpg, 1, [181 10 240], purple, 1, 54, 1, 1, 1.0099, 4, 0.7559, 1.0108,91,24,101,0.7746,0
 20, 1, 252, S3-12.jpg, 1, [181 10 240], purple, 1, 29, 2, 0, 0.5275, 2, 1.0052, 0.5284,85,42,118,0.7746,0
 20, 1, 253, S4-20.jpg, 2, [10 240 94], green, 1, 39, 2, 1, 0.7194, 4, 0.5202, 0.7201,80,26,77,0.7764,0
 20, 1, 254, S4-20.jpg, 2, [240 168 10], orange, NaN, 126, 2, 1, 2.2956, 3, 0.2493, 2.2965,92,32,140,0.7764,0
 20, 1, 255, S4-20.jpg, 2, [240 168 10], orange, NaN, 130, 1, 0, 2.3729, 3, 0.0405, 2.3744,102,28,98,0.7764,0
 20, 1, 256, S4-20.jpg, 2, [10 240 94], green, 1, 41, 2, 1, 0.7327, 4, 0.0170, 0.7336,99,30,76,0.7764,0
 20, 1, 257, S3-12.jpg, 1, [181 10 240], purple, 1, 45, 1, 1, 0.7852, 4, 0.0164, 0.7861,83,49,76,0.7746,0
 20, 1, 258, S4-20.jpg, 2, [10 240 94], green, 1, 43, 2, 1, 0.7483, 2, 0.2171, 0.7490,102,42,116,0.7764,0
 20, 1, 259, S3-12.jpg, 1, [181 10 240], purple, 1, 80, 1, 1, 1.4267, 4, 0.1987, 1.4276,83,43,97,0.7746,0
 20, 1, 260, S3-12.jpg, 1, [10 240 94], green, 0, 36, 2, 0, 0.7105, 4, 0.0963, 0.7115,76,45,81,0.7746,0
 20, 1, 261, S4-20.jpg, 2, [10 240 94], green, 1, 46, 2, 1, 0.8631, 4, 0.1832, 0.8639,81,23,82,0.7764,0
 20, 1, 262, S4-20.jpg, 2, [240 168 10], orange, NaN, 320, 1, 0, 5.7699, 3, 0.1771, 5.7706,108,39,118,0.7764,1
 20, 1, 263, S4-20.jpg, 2, [10 240 94], green, 1, 40, 2, 1, 0.7340, 4, 0.4341, 0.7348,91,46,78,0.7764,0
 20, 1, 264, S4-20.jpg, 2, [240 168 10], orange, NaN, 135, 2, 1, 2.4636, 4, 0.2388, 2.4650,75,38,89,0.7764,0
 20, 1, 265, S3-12.jpg, 1, [181 10 240], purple, 1, 52, 2, 0, 0.9500, 3, 1.1190, 0.9514,110,90,104,0.7746,0
 20, 1, 266, S4-20.jpg, 2, [181 10 240], purple, 0, 36, 2, 1, 0.6617, 2, 0.4004, 0.6627,121,60,92,0.7764,0
 20, 1, 267, S4-20.jpg, 2, [10 240 94], green, 1, 40, 2, 1, 0.7525, 4, 0.2706, 0.7533,76,30,97,0.7764,0
 20, 1, 268, S3-12.jpg, 1, [10 240 94], green, 0, 232, 2, 0, 4.1810, 4, 0.0002, 4.1820,78,23,116,0.7746,0
 20, 1, 269, S4-20.jpg, 2, [240 168 10], orange, NaN, 229, 1, 0, 4.1269, 3, 0.2179, 4.1279,99,34,110,0.7764,0
 20, 1, 270, S3-12.jpg, 1, [181 10 240], purple, 1, 72, 1, 1, 1.3384, 4, 0.1073, 1.3393,84,82,195,0.7746,0
 20, 1, 271, S4-20.jpg, 2, [240 168 10], orange, NaN, 148, 2, 1, 2.6480, 3, 0.0851, 2.6490,101,39,87,0.7764,0
 20, 1, 272, S4-20.jpg, 2, [10 240 94], green, 1, 40, 2, 1, 0.7221, 4, 0.3163, 0.7228,125,49,109,0.7764,0
 20, 1, 273, S4-20.jpg, 2, [10 240 94], green, 1, 38, 2, 1, 0.6992, 4, 0.3874, 0.6999,90,27,76,0.7764,0
 20, 1, 274, S4-20.jpg, 2, [240 168 10], orange, NaN, 208, 1, 0, 3.7347, 4, 0.2957, 3.7355,111,65,96,0.7764,0
 20, 1, 275, S4-20.jpg, 2, [10 240 94], green, 1, 137, 2, 1, 2.5041, 4, 0.3966, 2.5052,80,24,130,0.7764,1
 20, 1, 276, S3-12.jpg, 1, [181 10 240], purple, 1, 69, 1, 1, 1.2787, 4, 0.4248, 1.2795,77,28,88,0.7746,0