subID,block,trial,targetImg,targetIdx,cue_rgb,cue_string,congruent,respFrame,response,accuracy,RT,confResp,confRT,flickerDuration,noise1frames,signal1frames,noise2frames,coherence,catch_trial
 18, 1, 1, S3-12.jpg, 1, [181 10 240], purple, 1, 199, 2, 0, 2.8943, 4, 1.6100, 2.9117,90,41,115,0.7760,0
 18, 1, 2, S4-20.jpg, 2, [10 240 94], green, 1, 177, 1, 0, 2.5605, 4, 0.3927, 2.5616,100,25,80,0.7695,0
 18, 1, 3, S4-20.jpg, 2, [10 240 94], green, 1, 303, 2, 1, 4.3803, 4, 0.2190, 4.3813,85,31,134,0.7695,0
 18, 1, 4, S3-12.jpg, 1, [10 240 94], green, 0, 93, 1, 1, 1.3519, 4, 0.5430, 1.3530,77,34,91,0.7760,0
 18, 1, 5, S4-20.jpg, 2, [10 240 94], green, 1, 109, 1, 0, 1.5692, 4, 0.5200, 1.5700,77,27,97,0.7695,0
 18, 1, 6, S3-12.jpg, 1, [10 240 94], green, 0, 155, 2, 0, 2.2795, 4, 0.4523, 2.2802,76,91,94,0.7760,1
 18, 1, 7, S3-12.jpg, 1, [10 240 94], green, 0, 156, 1, 1, 2.2972, 4, 0.3573, 2.2983,91,24,143,0.7760,0
 18, 1, 8, S4-20.jpg, 2, [10 240 94], green, 1, 199, 1, 0, 2.9046, 4, 0.0024, 2.9055,126,26,90,0.7695,1
 18, 1, 9, S4-20.jpg, 2, [10 240 94], green, 1, 104, 1, 0, 1.5372, 4, 0.0325, 1.5382,89,70,81,0.7695,0
 18, 1, 10, S4-20.jpg, 2, [10 240 94], green, 1, 110, 1, 0, 1.6345, 4, 0.0551, 1.6355,79,51,95,0.7695,0
 18, 1, 11, S4-20.jpg, 2, [10 240 94], green, 1, 85, 1, 0, 1.2793, 4, 0.0479, 1.2802,97,29,117,0.7695,0
 18, 1, 12, S4-20.jpg, 2, [10 240 94], green, 1, 56, 1, 0, 0.9276, 4, 0.0172, 0.9283,86,37,76,0.7695,0
 18, 1, 13, S3-12.jpg, 1, [181 10 240], purple, 1, 172, 1, 1, 2.6154, 4, 0.0076, 2.6194,108,80,91,0.7760,0
 18, 1, 14, S4-20.jpg, 2, [10 240 94], green, 1, 114, 1, 0, 1.7375, 4, 0.0056, 1.7384,78,81,86,0.7695,0
 18, 1, 15, S4-20.jpg, 2, [10 240 94], green, 1, 219, 1, 0, 3.3145, 4, 0.0475, 3.3155,80,32,82,0.7695,0
 18, 1, 16, S3-12.jpg, 1, [240 168 10], orange, NaN, 240, 1, 1, 3.5920, 4, 0.0307, 3.5927,79,33,80,0.7760,0
 18, 1, 17, S3-12.jpg, 1, [240 168 10], orange, NaN, 112, 1, 1, 1.6746, 4, 0.0002, 1.6754,91,35,77,0.7760,0
 18, 1, 18, S3-12.jpg, 1, [240 168 10], orange, NaN, 188, 1, 1, 2.7935, 4, 0.0469, 2.7943,86,41,76,0.7760,0
 18, 1, 19, S3-12.jpg, 1, [181 10 240], purple, 1, 288, 2, 0, 4.2004, 4, 0.0002, 4.2011,104,40,83,0.7760,0
 18, 1, 20, S3-12.jpg, 1, [181 10 240], purple, 1, 239, 1, 1, 3.5293, 4, 0.0002, 3.5301,82,29,98,0.7760,0
 18, 1, 21, S4-20.jpg, 2, [181 10 240], purple, 0, 255, 1, 0, 3.8466, 4, 0.0705, 3.8481,99,30,128,0.7695,0
 18, 1, 22, S3-12.jpg, 1, [240 168 10], orange, NaN, 251, 1, 1, 3.7715, 1, 0.1788, 3.7725,109,69,102,0.7760,0
 18, 1, 23, S3-12.jpg, 1, [240 168 10], orange, NaN, 86, 1, 1, 1.2848, 2, 0.4471, 1.2863,84,30,78,0.7760,0
 18, 1, 24, S3-12.jpg, 1, [240 168 10], orange, NaN, 214, 1, 1, 3.1255, 2, 0.2881, 3.1265,83,41,101,0.7760,0
 18, 1, 25, S3-12.jpg, 1, [181 10 240], purple, 1, 204, 2, 0, 2.9645, 3, 0.2928, 2.9654,93,55,103,0.7760,0
 18, 1, 26, S3-12.jpg, 1, [181 10 240], purple, 1, 101, 1, 1, 1.4519, 3, 0.0724, 1.4527,84,37,105,0.7760,0
 18, 1, 27, S3-12.jpg, 1, [10 240 94], green, 0, 101, 2, 0, 1.4827, 3, 0.0150, 1.4836,84,71,78,0.7760,0
 18, 1, 28, S3-12.jpg, 1, [181 10 240], purple, 1, 108, 1, 1, 1.5975, 3, 0.0005, 1.5984,77,68,96,0.7760,0
 18, 1, 29, S4-20.jpg, 2, [181 10 240], purple, 0, 116, 2, 1, 1.7519, 2, 0.2091, 1.7527,106,45,132,0.7695,0
 18, 1, 30, S3-12.jpg, 1, [240 168 10], orange, NaN, 71, 1, 1, 1.0853, 2, 0.1195, 1.0863,75,51,83,0.7760,1
 18, 1, 31, S4-20.jpg, 2, [10 240 94], green, 1, 105, 1, 0, 1.5594, 3, 0.0963, 1.5604,78,36,79,0.7695,0
 18, 1, 32, S4-20.jpg, 2, [10 240 94], green, 1, 193, 1, 0, 2.7686, 4, 0.6955, 2.7697,75,50,119,0.7695,0
 18, 1, 33, S3-12.jpg, 1, [181 10 240], purple, 1, 219, 2, 0, 3.1887, 3, 0.1643, 3.1897,131,35,103,0.7760,0
 18, 1, 34, S4-20.jpg, 2, [181 10 240], purple, 0, 225, 1, 0, 3.2617, 4, 0.7313, 3.2631,96,74,99,0.7695,0
 18, 1, 35, S3-12.jpg, 1, [240 168 10], orange, NaN, 214, 2, 0, 3.1214, 4, 0.0736, 3.1222,129,44,76,0.7760,0
 18, 1, 36, S4-20.jpg, 2, [10 240 94], green, 1, 93, 1, 0, 1.3485, 4, 0.0216, 1.3495,195,32,89,0.7695,0
 18, 1, 37, S3-12.jpg, 1, [240 168 10], orange, NaN, 45, 2, 0, 0.6891, 4, 0.0841, 0.6901,110,24,104,0.7760,0
 18, 1, 38, S3-12.jpg, 1, [181 10 240], purple, 1, 241, 1, 1, 3.5280, 4, 0.0325, 3.5288,130,44,111,0.7760,0
 18, 1, 39, S3-12.jpg, 1, [181 10 240], purple, 1, 234, 1, 1, 3.4749, 4, 0.0050, 3.4759,106,26,117,0.7760,0
 18, 1, 40, S3-12.jpg, 1, [181 10 240], purple, 1, 94, 1, 1, 1.3704, 4, 0.0006, 1.3713,95,46,108,0.7760,0
 18, 1, 41, S4-20.jpg, 2, [10 240 94], green, 1, 173, 2, 1, 2.5444, 4, 0.0279, 2.5453,77,37,195,0.7695,0
 18, 1, 42, S3-12.jpg, 1, [240 168 10], orange, NaN, 221, 2, 0, 3.2776, 4, 0.0645, 3.2783,84,50,77,0.7760,0
 18, 1, 43, S4-20.jpg, 2, [10 240 94], green, 1, 196, 1, 0, 2.8943, 4, 0.0665, 2.8952,75,30,80,0.7695,0
 18, 1, 44, S4-20.jpg, 2, [10 240 94], green, 1, 220, 1, 0, 3.2985, 4, 0.0002, 3.2992,115,54,96,0.7695,0
 18, 1, 45, S3-12.jpg, 1, [181 10 240], purple, 1, 372, 1, 1, 5.4468, 4, 0.0003, 5.4478,83,34,78,0.7760,0
 18, 1, 46, S4-20.jpg, 2, [10 240 94], green, 1, 170, 1, 0, 2.4882, 4, 0.0529, 2.4892,77,45,118,0.7695,0
 18, 1, 47, S3-12.jpg, 1, [240 168 10], orange, NaN, 24, 1, 1, 0.3343, 4, 0.0017, 0.3358,86,62,77,0.7760,0
 18, 1, 48, S3-12.jpg, 1, [10 240 94], green, 0, 4, 1, 1, 0.0520, 4, 0.0003, 0.0530,95,39,137,0.7760,0
 18, 1, 49, S3-12.jpg, 1, [181 10 240], purple, 1, 39, 1, 1, 0.5955, 4, 0.0094, 0.5963,93,35,102,0.7760,0
 18, 1, 50, S3-12.jpg, 1, [10 240 94], green, 0, 23, 1, 1, 0.3387, 4, 0.0263, 0.3397,79,35,87,0.7760,0
 18, 1, 51, S4-20.jpg, 2, [10 240 94], green, 1, 27, 1, 0, 0.4064, 4, 0.0720, 0.4073,80,48,80,0.7695,1
 18, 1, 52, S4-20.jpg, 2, [10 240 94], green, 1, 32, 1, 0, 0.5013, 4, 0.0912, 0.5022,85,29,84,0.7695,1
 18, 1, 53, S3-12.jpg, 1, [240 168 10], orange, NaN, 239, 1, 1, 3.5272, 4, 0.0005, 3.5286,83,42,195,0.7760,0
 18, 1, 54, S3-12.jpg, 1, [181 10 240], purple, 1, 206, 1, 1, 2.9800, 4, 0.0071, 2.9810,114,52,82,0.7760,1
 18, 1, 55, S3-12.jpg, 1, [240 168 10], orange, NaN, 227, 2, 0, 3.4469, 4, 0.0061, 3.4481,100,34,140,0.7760,0
 18, 1, 56, S4-20.jpg, 2, [10 240 94], green, 1, 61, 1, 0, 0.9653, 4, 0.0098, 0.9661,119,24,90,0.7695,0
 18, 1, 57, S3-12.jpg, 1, [240 168 10], orange, NaN, 283, 2, 0, 4.1103, 4, 0.0044, 4.1118,101,57,82,0.7760,0
 18, 1, 58, S4-20.jpg, 2, [181 10 240], purple, 0, 103, 1, 0, 1.5115, 4, 0.0339, 1.5123,93,38,94,0.7695,0
 18, 1, 59, S4-20.jpg, 2, [10 240 94], green, 1, 166, 1, 0, 2.4240, 4, 0.0002, 2.4250,85,38,80,0.7695,0
 18, 1, 60, S3-12.jpg, 1, [240 168 10], orange, NaN, 349, 2, 0, 5.1296, 4, 0.1039, 5.1304,81,28,141,0.7760,0
 18, 1, 61, S3-12.jpg, 1, [181 10 240], purple, 1, 251, 1, 1, 3.6686, 4, 0.0002, 3.6695,85,64,82,0.7760,0
 18, 1, 62, S3-12.jpg, 1, [10 240 94], green, 0, 162, 1, 1, 2.3403, 4, 0.0459, 2.3410,87,27,139,0.7760,0
 18, 1, 63, S3-12.jpg, 1, [181 10 240], purple, 1, 423, 1, 1, 6.2300, 4, 0.0041, 6.2310,82,26,79,0.7760,0
 18, 1, 64, S3-12.jpg, 1, [181 10 240], purple, 1, 356, 2, 0, 5.2608, 4, 0.1259, 5.2622,84,38,83,0.7760,0
 18, 1, 65, S3-12.jpg, 1, [181 10 240], purple, 1, 137, 2, 0, 2.0250, 4, 0.0002, 2.0259,93,42,87,0.7760,0
 18, 1, 66, S3-12.jpg, 1, [181 10 240], purple, 1, 174, 2, 0, 2.5273, 4, 0.0032, 2.5283,116,24,76,0.7760,0
 18, 1, 67, S4-20.jpg, 2, [10 240 94], green, 1, 454, 2, 1, 6.6615, 4, 0.0004, 6.6624,77,48,91,0.7695,0
 18, 1, 68, S4-20.jpg, 2, [10 240 94], green, 1, 393, 2, 1, 5.7397, 4, 0.3518, 5.7407,82,46,101,0.7695,0
 18, 1, 69, S4-20.jpg, 2, [10 240 94], green, 1, 324, 2, 1, 4.7456, 4, 0.0077, 4.7467,107,49,135,0.7695,0
 18, 1, 70, S4-20.jpg, 2, [240 168 10], orange, NaN, 274, 2, 1, 4.0246, 4, 0.0041, 4.0260,96,29,81,0.7695,1
 18, 1, 71, S3-12.jpg, 1, [10 240 94], green, 0, 61, 1, 1, 0.9822, 4, 0.0050, 0.9829,123,33,76,0.7760,0
 18, 1, 72, S3-12.jpg, 1, [240 168 10], orange, NaN, 75, 1, 1, 1.1819, 4, 0.0002, 1.1828,105,68,96,0.7760,0
 18, 1, 73, S4-20.jpg, 2, [10 240 94], green, 1, 92, 1, 0, 1.4312, 4, 0.0001, 1.4326,76,60,114,0.7695,0
 18, 1, 74, S4-20.jpg, 2, [10 240 94], green, 1, 418, 2, 1, 6.0992, 4, 0.0363, 6.0999,77,46,85,0.7695,0
 18, 1, 75, S4-20.jpg, 2, [10 240 94], green, 1, 143, 2, 1, 2.1626, 4, 0.0059, 2.1633,195,30,78,0.7695,0
 18, 1, 76, S3-12.jpg, 1, [181 10 240], purple, 1, 166, 2, 0, 2.4535, 4, 0.0732, 2.4542,102,66,100,0.7760,0
 18, 1, 77, S3-12.jpg, 1, [240 168 10], orange, NaN, 158, 1, 1, 2.4042, 1, 0.2240, 2.4056,77,40,106,0.7760,0
 18, 1, 78, S4-20.jpg, 2, [10 240 94], green, 1, 126, 2, 1, 1.8267, 3, 0.0003, 1.8275,89,47,109,0.7695,0
 18, 1, 79, S4-20.jpg, 2, [10 240 94], green, 1, 149, 2, 1, 2.1724, 4, 0.0987, 2.1731,83,28,91,0.7695,1
 18, 1, 80, S3-12.jpg, 1, [240 168 10], orange, NaN, 187, 2, 0, 2.7784, 4, 0.0736, 2.7794,120,33,101,0.7760,0
 18, 1, 81, S3-12.jpg, 1, [181 10 240], purple, 1, 259, 1, 1, 3.8175, 4, 0.2375, 3.8185,95,24,77,0.7760,0
 18, 1, 82, S4-20.jpg, 2, [10 240 94], green, 1, 120, 1, 0, 1.7804, 4, 0.2444, 1.7811,96,58,97,0.7695,0
 18, 1, 83, S3-12.jpg, 1, [10 240 94], green, 0, 292, 1, 1, 4.2361, 4, 0.0782, 4.2368,82,38,90,0.7760,0
 18, 1, 84, S4-20.jpg, 2, [10 240 94], green, 1, 107, 2, 1, 1.6006, 4, 0.0003, 1.6016,88,39,115,0.7695,0
 18, 1, 85, S3-12.jpg, 1, [181 10 240], purple, 1, 129, 2, 0, 1.9599, 4, 0.0002, 1.9607,104,25,93,0.7760,0
 18, 1, 86, S4-20.jpg, 2, [10 240 94], green, 1, 152, 1, 0, 2.3152, 4, 0.2397, 2.3161,96,78,108,0.7695,0
 18, 1, 87, S3-12.jpg, 1, [181 10 240], purple, 1, 331, 2, 0, 4.8919, 4, 1.0175, 4.8926,77,23,76,0.7760,0
 18, 1, 88, S3-12.jpg, 1, [240 168 10], orange, NaN, 141, 2, 0, 2.0733, 4, 0.0297, 2.0742,86,30,85,0.7760,0
 18, 1, 89, S3-12.jpg, 1, [181 10 240], purple, 1, 247, 1, 1, 3.6639, 4, 0.0155, 3.6648,132,30,84,0.7760,0
 18, 1, 90, S3-12.jpg, 1, [181 10 240], purple, 1, 173, 2, 0, 2.5441, 4, 0.0090, 2.5453,106,33,113,0.7760,0
 18, 1, 91, S4-20.jpg, 2, [10 240 94], green, 1, 146, 1, 0, 2.1901, 4, 0.0261, 2.1908,86,46,80,0.7695,1
 18, 1, 92, S3-12.jpg, 1, [181 10 240], purple, 1, 25, 2, 0, 0.3782, 4, 0.0048, 0.3790,81,56,102,0.7760,0
 18, 1, 93, S3-12.jpg, 1, [10 240 94], green, 0, 23, 1, 1, 0.3378, 4, 0.0085, 0.3387,101,31,84,0.7760,0
 18, 1, 94, S3-12.jpg, 1, [181 10 240], purple, 1, 45, 2, 0, 0.6288, 4, 0.0003, 0.6302,138,28,78,0.7760,0
 18, 1, 95, S3-12.jpg, 1, [10 240 94], green, 0, 27, 1, 1, 0.3825, 4, 0.0290, 0.3832,107,56,83,0.7760,0
 18, 1, 96, S3-12.jpg, 1, [240 168 10], orange, NaN, 19, 2, 0, 0.3090, 4, 0.0617, 0.3097,99,31,77,0.7760,0
 18, 1, 97, S4-20.jpg, 2, [10 240 94], green, 1, 26, 1, 0, 0.4459, 4, 0.0517, 0.4467,87,40,92,0.7695,0
 18, 1, 98, S3-12.jpg, 1, [10 240 94], green, 0, 34, 1, 1, 0.4678, 3, 0.0710, 0.4687,87,24,78,0.7760,0
 18, 1, 99, S4-20.jpg, 2, [10 240 94], green, 1, 42, 1, 0, 0.5937, 3, 0.0348, 0.5946,85,44,77,0.7695,0
 18, 1, 100, S4-20.jpg, 2, [181 10 240], purple, 0, 44, 2, 1, 0.6581, 3, 0.0568, 0.6590,139,23,77,0.7695,0
 18, 1, 101, S4-20.jpg, 2, [10 240 94], green, 1, 25, 1, 0, 0.4017, 3, 0.0024, 0.4025,85,32,116,0.7695,0
 18, 1, 102, S3-12.jpg, 1, [10 240 94], green, 0, 31, 1, 1, 0.4362, 3, 0.0075, 0.4371,82,24,85,0.7760,0
 18, 1, 103, S3-12.jpg, 1, [181 10 240], purple, 1, 35, 2, 0, 0.5116, 3, 0.0003, 0.5126,102,38,83,0.7760,0
 18, 1, 104, S4-20.jpg, 2, [10 240 94], green, 1, 35, 1, 0, 0.5338, 2, 0.0865, 0.5346,76,58,77,0.7695,0
 18, 1, 105, S3-12.jpg, 1, [240 168 10], orange, NaN, 247, 2, 0, 3.6455, 3, 0.2485, 3.6462,104,53,126,0.7760,0
 18, 1, 106, S4-20.jpg, 2, [10 240 94], green, 1, 63, 1, 0, 0.9490, 3, 0.3049, 0.9497,116,61,110,0.7695,0
 18, 1, 107, S3-12.jpg, 1, [181 10 240], purple, 1, 320, 2, 0, 4.7147, 3, 0.0701, 4.7157,92,51,93,0.7760,0
 18, 1, 108, S4-20.jpg, 2, [10 240 94], green, 1, 194, 1, 0, 2.8439, 2, 0.5622, 2.8449,103,26,81,0.7695,0
 18, 1, 109, S4-20.jpg, 2, [10 240 94], green, 1, 33, 1, 0, 0.4733, 1, 0.4398, 0.4741,82,41,104,0.7695,0
 18, 1, 110, S3-12.jpg, 1, [240 168 10], orange, NaN, 237, 2, 0, 3.4277, 4, 0.0155, 3.4288,78,24,123,0.7760,0
 18, 1, 111, S4-20.jpg, 2, [181 10 240], purple, 0, 123, 2, 1, 1.8659, 3, 0.0002, 1.8667,75,42,77,0.7695,0
 18, 1, 112, S3-12.jpg, 1, [181 10 240], purple, 1, 141, 2, 0, 2.1143, 3, 0.0002, 2.1152,78,28,76,0.7760,0
 18, 1, 113, S3-12.jpg, 1, [181 10 240], purple, 1, 35, 2, 0, 0.4883, 3, 0.0002, 0.4893,91,23,79,0.7760,0
 18, 1, 114, S3-12.jpg, 1, [181 10 240], purple, 1, 25, 2, 0, 0.4425, 3, 0.0453, 0.4433,117,75,78,0.7760,0
 18, 1, 115, S3-12.jpg, 1, [181 10 240], purple, 1, 31, 2, 0, 0.4332, 3, 0.0061, 0.4339,76,31,79,0.7760,0
 18, 1, 116, S4-20.jpg, 2, [181 10 240], purple, 0, 31, 2, 1, 0.4826, 3, 0.0002, 0.4834,81,51,98,0.7695,0
 18, 1, 117, S4-20.jpg, 2, [10 240 94], green, 1, 32, 1, 0, 0.4686, 3, 0.0669, 0.4694,109,30,116,0.7695,0
 18, 1, 118, S3-12.jpg, 1, [181 10 240], purple, 1, 43, 2, 0, 0.6114, 3, 0.1261, 0.6123,100,44,75,0.7760,0
 18, 1, 119, S3-12.jpg, 1, [240 168 10], orange, NaN, 284, 2, 0, 4.1658, 3, 0.0830, 4.1673,98,34,118,0.7760,0
 18, 1, 120, S3-12.jpg, 1, [10 240 94], green, 0, 175, 1, 1, 2.6244, 3, 0.0337, 2.6252,85,29,114,0.7760,0
 18, 1, 121, S3-12.jpg, 1, [181 10 240], purple, 1, 307, 1, 1, 4.6020, 4, 0.1778, 4.6027,80,39,101,0.7760,1
 18, 1, 122, S3-12.jpg, 1, [10 240 94], green, 0, 403, 2, 0, 5.8170, 4, 0.3637, 5.8179,79,63,93,0.7760,0
 18, 1, 123, S4-20.jpg, 2, [10 240 94], green, 1, 173, 1, 0, 2.5312, 3, 0.0002, 2.5327,89,26,89,0.7695,0
 18, 1, 124, S3-12.jpg, 1, [10 240 94], green, 0, 49, 2, 0, 0.7321, 3, 0.0002, 0.7332,90,24,100,0.7760,0
 18, 1, 125, S3-12.jpg, 1, [181 10 240], purple, 1, 339, 2, 0, 4.9607, 4, 0.0061, 4.9614,105,32,127,0.7760,0
 18, 1, 126, S4-20.jpg, 2, [181 10 240], purple, 0, 313, 1, 0, 4.5647, 3, 0.2580, 4.5662,118,84,87,0.7695,0
 18, 1, 127, S4-20.jpg, 2, [10 240 94], green, 1, 181, 1, 0, 2.5910, 4, 0.7422, 2.5924,95,34,103,0.7695,0
 18, 1, 128, S3-12.jpg, 1, [181 10 240], purple, 1, 271, 1, 1, 4.0181, 4, 0.2193, 4.0195,92,36,78,0.7760,0
 18, 1, 129, S3-12.jpg, 1, [240 168 10], orange, NaN, 167, 1, 1, 2.4428, 4, 0.0002, 2.4437,80,26,103,0.7760,0
 18, 1, 130, S3-12.jpg, 1, [181 10 240], purple, 1, 230, 1, 1, 3.3841, 4, 0.0002, 3.3855,75,67,88,0.7760,0
 18, 1, 131, S4-20.jpg, 2, [10 240 94], green, 1, 43, 2, 1, 0.6310, 4, 0.0551, 0.6317,90,31,105,0.7695,0
 18, 1, 132, S3-12.jpg, 1, [181 10 240], purple, 1, 27, 1, 1, 0.3984, 4, 0.0447, 0.3992,79,27,93,0.7760,0
 18, 1, 133, S3-12.jpg, 1, [181 10 240], purple, 1, 32, 1, 1, 0.4620, 3, 0.0002, 0.4628,94,45,85,0.7760,0
 18, 1, 134, S4-20.jpg, 2, [181 10 240], purple, 0, 22, 1, 0, 0.3546, 3, 0.0436, 0.3557,110,54,107,0.7695,0
 18, 1, 135, S4-20.jpg, 2, [10 240 94], green, 1, 70, 2, 1, 1.1002, 3, 0.0692, 1.1009,99,45,85,0.7695,0
 18, 1, 136, S4-20.jpg, 2, [10 240 94], green, 1, 24, 2, 1, 0.3607, 3, 0.0612, 0.3618,112,30,78,0.7695,0
 18, 1, 137, S3-12.jpg, 1, [240 168 10], orange, NaN, 121, 1, 1, 1.8107, 3, 0.0002, 1.8115,88,65,111,0.7760,0
 18, 1, 138, S3-12.jpg, 1, [240 168 10], orange, NaN, 55, 1, 1, 0.8479, 3, 0.0795, 0.8488,90,28,100,0.7760,0
 18, 1, 139, S4-20.jpg, 2, [181 10 240], purple, 0, 41, 1, 0, 0.6817, 3, 0.0164, 0.6824,78,25,86,0.7695,0
 18, 1, 140, S4-20.jpg, 2, [10 240 94], green, 1, 43, 2, 1, 0.6607, 3, 0.0002, 0.6614,80,36,92,0.7695,0
 18, 1, 141, S4-20.jpg, 2, [240 168 10], orange, NaN, 142, 2, 1, 2.1652, 3, 0.0002, 2.1662,81,39,75,0.7695,0
 18, 1, 142, S4-20.jpg, 2, [10 240 94], green, 1, 91, 2, 1, 1.4179, 3, 0.0572, 1.4194,82,26,87,0.7695,0
 18, 1, 143, S4-20.jpg, 2, [10 240 94], green, 1, 93, 1, 0, 1.4205, 3, 0.0033, 1.4214,92,66,79,0.7695,0
 18, 1, 144, S3-12.jpg, 1, [181 10 240], purple, 1, 184, 1, 1, 2.7644, 3, 0.0437, 2.7659,115,37,112,0.7760,0
 18, 1, 145, S4-20.jpg, 2, [10 240 94], green, 1, 124, 1, 0, 1.8792, 3, 0.0002, 1.8800,79,25,83,0.7695,0
 18, 1, 146, S4-20.jpg, 2, [240 168 10], orange, NaN, 152, 2, 1, 2.2877, 3, 0.0321, 2.2885,84,83,120,0.7695,0
 18, 1, 147, S3-12.jpg, 1, [181 10 240], purple, 1, 162, 2, 0, 2.4133, 3, 0.0527, 2.4141,78,32,102,0.7760,0
 18, 1, 148, S3-12.jpg, 1, [181 10 240], purple, 1, 87, 1, 1, 1.3321, 3, 0.0043, 1.3330,84,36,96,0.7760,0
 18, 1, 149, S3-12.jpg, 1, [181 10 240], purple, 1, 160, 2, 0, 2.3897, 3, 0.0002, 2.3907,98,44,80,0.7760,0
 18, 1, 150, S3-12.jpg, 1, [181 10 240], purple, 1, 166, 1, 1, 2.5008, 3, 0.0110, 2.5015,86,39,88,0.7760,0
 18, 1, 151, S3-12.jpg, 1, [181 10 240], purple, 1, 248, 1, 1, 3.5743, 4, 0.0419, 3.5752,85,58,82,0.7760,0
 18, 1, 152, S3-12.jpg, 1, [181 10 240], purple, 1, 130, 1, 1, 1.9898, 4, 0.0162, 1.9906,96,25,78,0.7760,0
 18, 1, 153, S3-12.jpg, 1, [181 10 240], purple, 1, 43, 1, 1, 0.6310, 3, 0.0018, 0.6318,78,28,131,0.7760,0
 18, 1, 154, S3-12.jpg, 1, [181 10 240], purple, 1, 46, 1, 1, 0.6661, 3, 0.0002, 0.6671,111,32,82,0.7760,0
 18, 1, 155, S4-20.jpg, 2, [10 240 94], green, 1, 25, 2, 1, 0.4079, 3, 0.0002, 0.4087,88,89,77,0.7695,0
 18, 1, 156, S3-12.jpg, 1, [181 10 240], purple, 1, 38, 1, 1, 0.5635, 3, 0.0057, 0.5644,91,29,136,0.7760,0
 18, 1, 157, S4-20.jpg, 2, [10 240 94], green, 1, 97, 2, 1, 1.4679, 3, 0.0032, 1.4689,133,29,84,0.7695,0
 18, 1, 158, S3-12.jpg, 1, [181 10 240], purple, 1, 53, 1, 1, 0.8183, 3, 0.0638, 0.8192,110,29,112,0.7760,0
 18, 1, 159, S4-20.jpg, 2, [10 240 94], green, 1, 34, 2, 1, 0.4773, 4, 0.1417, 0.4783,141,38,94,0.7695,0
 18, 1, 160, S4-20.jpg, 2, [240 168 10], orange, NaN, 209, 2, 1, 2.9568, 4, 0.0002, 2.9577,77,27,79,0.7695,0
 18, 1, 161, S4-20.jpg, 2, [240 168 10], orange, NaN, 208, 2, 1, 3.0975, 4, 0.0654, 3.0985,92,56,99,0.7695,0
 18, 1, 162, S3-12.jpg, 1, [181 10 240], purple, 1, 105, 1, 1, 1.5981, 4, 0.1147, 1.5990,118,34,113,0.7760,0
 18, 1, 163, S4-20.jpg, 2, [240 168 10], orange, NaN, 188, 2, 1, 2.8157, 3, 0.0223, 2.8167,102,31,78,0.7695,0
 18, 1, 164, S4-20.jpg, 2, [181 10 240], purple, 0, 70, 1, 0, 1.0787, 3, 0.0026, 1.0800,81,26,88,0.7695,0
 18, 1, 165, S4-20.jpg, 2, [10 240 94], green, 1, 34, 2, 1, 0.5390, 3, 0.0002, 0.5398,90,40,81,0.7695,0
 18, 1, 166, S4-20.jpg, 2, [10 240 94], green, 1, 51, 2, 1, 0.7131, 3, 0.0003, 0.7140,113,32,106,0.7695,0
 18, 1, 167, S3-12.jpg, 1, [181 10 240], purple, 1, 50, 1, 1, 0.7945, 3, 0.0337, 0.7954,86,37,142,0.7760,0
 18, 1, 168, S3-12.jpg, 1, [181 10 240], purple, 1, 93, 1, 1, 1.3640, 3, 0.0269, 1.3648,114,33,99,0.7760,1
 18, 1, 169, S4-20.jpg, 2, [240 168 10], orange, NaN, 152, 1, 0, 2.2624, 3, 0.0550, 2.2633,121,35,96,0.7695,0
 18, 1, 170, S4-20.jpg, 2, [240 168 10], orange, NaN, 127, 2, 1, 1.8947, 3, 0.0035, 1.8962,103,35,133,0.7695,0
 18, 1, 171, S3-12.jpg, 1, [181 10 240], purple, 1, 50, 1, 1, 0.8113, 3, 0.0003, 0.8120,143,27,88,0.7760,1
 18, 1, 172, S3-12.jpg, 1, [240 168 10], orange, NaN, 175, 1, 1, 2.6193, 3, 0.0156, 2.6201,94,73,98,0.7760,1
 18, 1, 173, S4-20.jpg, 2, [240 168 10], orange, NaN, 210, 2, 1, 3.1056, 3, 0.0650, 3.1063,117,61,97,0.7695,0
 18, 1, 174, S4-20.jpg, 2, [10 240 94], green, 1, 55, 2, 1, 0.8512, 3, 0.0002, 0.8522,113,30,79,0.7695,0
 18, 1, 175, S3-12.jpg, 1, [181 10 240], purple, 1, 26, 1, 1, 0.3613, 3, 0.0641, 0.3627,88,23,76,0.7760,0
 18, 1, 176, S4-20.jpg, 2, [181 10 240], purple, 0, 29, 1, 0, 0.4268, 3, 0.0011, 0.4278,93,23,93,0.7695,0
 18, 1, 177, S4-20.jpg, 2, [240 168 10], orange, NaN, 231, 1, 0, 3.4480, 3, 0.0531, 3.4489,88,25,93,0.7695,0
 18, 1, 178, S4-20.jpg, 2, [181 10 240], purple, 0, 52, 1, 0, 0.7897, 3, 0.0243, 0.7908,78,39,75,0.7695,0
 18, 1, 179, S4-20.jpg, 2, [10 240 94], green, 1, 28, 2, 1, 0.3841, 3, 0.0173, 0.3850,97,49,129,0.7695,0
 18, 1, 180, S3-12.jpg, 1, [181 10 240], purple, 1, 157, 1, 1, 2.3082, 3, 0.0002, 2.3091,76,29,138,0.7760,0
 18, 1, 181, S4-20.jpg, 2, [181 10 240], purple, 0, 93, 1, 0, 1.4327, 3, 0.0789, 1.4337,120,67,81,0.7695,1
 18, 1, 182, S4-20.jpg, 2, [10 240 94], green, 1, 26, 2, 1, 0.4274, 3, 0.0002, 0.4283,80,25,86,0.7695,1
 18, 1, 183, S3-12.jpg, 1, [181 10 240], purple, 1, 29, 1, 1, 0.4247, 3, 0.0050, 0.4257,101,25,88,0.7760,0
 18, 1, 184, S4-20.jpg, 2, [10 240 94], green, 1, 25, 2, 1, 0.3713, 3, 0.0218, 0.3722,98,52,85,0.7695,0
 18, 1, 185, S3-12.jpg, 1, [181 10 240], purple, 1, 38, 1, 1, 0.5582, 3, 0.0657, 0.5589,81,26,109,0.7760,0
 18, 1, 186, S3-12.jpg, 1, [181 10 240], purple, 1, 34, 1, 1, 0.5102, 3, 0.0054, 0.5111,77,40,110,0.7760,0
 18, 1, 187, S3-12.jpg, 1, [181 10 240], purple, 1, 30, 1, 1, 0.4568, 3, 0.0004, 0.4576,81,27,86,0.7760,0
 18, 1, 188, S4-20.jpg, 2, [240 168 10], orange, NaN, 186, 2, 1, 2.7047, 3, 0.0157, 2.7057,97,36,75,0.7695,0
 18, 1, 189, S4-20.jpg, 2, [181 10 240], purple, 0, 29, 1, 0, 0.4353, 3, 0.0002, 0.4368,134,50,90,0.7695,0
 18, 1, 190, S3-12.jpg, 1, [181 10 240], purple, 1, 30, 1, 1, 0.4413, 3, 0.0015, 0.4420,80,50,81,0.7760,0
 18, 1, 191, S3-12.jpg, 1, [10 240 94], green, 0, 34, 2, 0, 0.5039, 3, 0.0223, 0.5050,108,32,88,0.7760,0
 18, 1, 192, S3-12.jpg, 1, [181 10 240], purple, 1, 32, 2, 0, 0.4673, 3, 0.1938, 0.4681,98,24,82,0.7760,0
 18, 1, 193, S4-20.jpg, 2, [10 240 94], green, 1, 38, 2, 1, 0.5332, 3, 0.0002, 0.5339,88,28,84,0.7695,0
 18, 1, 194, S4-20.jpg, 2, [181 10 240], purple, 0, 25, 1, 0, 0.3612, 3, 0.0002, 0.3621,83,63,120,0.7695,0
 18, 1, 195, S4-20.jpg, 2, [10 240 94], green, 1, 28, 2, 1, 0.4436, 3, 0.0552, 0.4443,84,47,95,0.7695,0
 18, 1, 196, S4-20.jpg, 2, [181 10 240], purple, 0, 27, 1, 0, 0.4267, 3, 0.0003, 0.4274,78,88,97,0.7695,0
 18, 1, 197, S3-12.jpg, 1, [181 10 240], purple, 1, 23, 1, 1, 0.3745, 3, 0.0002, 0.3752,82,38,87,0.7760,1
 18, 1, 198, S4-20.jpg, 2, [240 168 10], orange, NaN, 273, 2, 1, 4.0691, 4, 0.4982, 4.0700,137,34,97,0.7695,0
 18, 1, 199, S4-20.jpg, 2, [10 240 94], green, 1, 43, 2, 1, 0.6278, 3, 0.2194, 0.6293,128,60,86,0.7695,0
 18, 1, 200, S4-20.jpg, 2, [240 168 10], orange, NaN, 164, 1, 0, 2.4184, 4, 0.1755, 2.4192,89,143,79,0.7695,0
 18, 1, 201, S3-12.jpg, 1, [181 10 240], purple, 1, 23, 1, 1, 0.3069, 3, 0.0452, 0.3077,93,27,89,0.7760,0
 18, 1, 202, S4-20.jpg, 2, [10 240 94], green, 1, 20, 2, 1, 0.2965, 3, 0.1023, 0.2974,90,36,124,0.7695,0
 18, 1, 203, S4-20.jpg, 2, [240 168 10], orange, NaN, 180, 1, 0, 2.6659, 3, 0.0002, 2.6667,135,33,92,0.7695,0
 18, 1, 204, S3-12.jpg, 1, [10 240 94], green, 0, 48, 2, 0, 0.7213, 3, 0.2484, 0.7222,91,48,80,0.7760,1
 18, 1, 205, S4-20.jpg, 2, [240 168 10], orange, NaN, 121, 2, 1, 1.8178, 4, 0.2340, 1.8193,111,43,95,0.7695,0
 18, 1, 206, S4-20.jpg, 2, [181 10 240], purple, 0, 42, 1, 0, 0.6333, 3, 0.0023, 0.6340,87,79,87,0.7695,1
 18, 1, 207, S4-20.jpg, 2, [10 240 94], green, 1, 29, 2, 1, 0.4224, 3, 0.0002, 0.4234,87,47,84,0.7695,0
 18, 1, 208, S4-20.jpg, 2, [10 240 94], green, 1, 33, 2, 1, 0.4553, 3, 0.2818, 0.4561,87,90,95,0.7695,0
 18, 1, 209, S4-20.jpg, 2, [10 240 94], green, 1, 50, 2, 1, 0.7539, 3, 0.0579, 0.7547,89,27,78,0.7695,1
 18, 1, 210, S4-20.jpg, 2, [10 240 94], green, 1, 26, 2, 1, 0.3872, 3, 0.1841, 0.3882,122,54,77,0.7695,0
 18, 1, 211, S4-20.jpg, 2, [10 240 94], green, 1, 22, 2, 1, 0.3158, 3, 0.0250, 0.3165,76,30,76,0.7695,0
 18, 1, 212, S3-12.jpg, 1, [181 10 240], purple, 1, 42, 1, 1, 0.6534, 3, 0.0769, 0.6542,80,82,86,0.7760,0
 18, 1, 213, S4-20.jpg, 2, [10 240 94], green, 1, 33, 2, 1, 0.4659, 3, 0.0267, 0.4669,81,47,82,0.7695,0
 18, 1, 214, S4-20.jpg, 2, [181 10 240], purple, 0, 31, 1, 0, 0.4415, 3, 0.0035, 0.4425,142,27,88,0.7695,0
 18, 1, 215, S4-20.jpg, 2, [10 240 94], green, 1, 30, 2, 1, 0.4061, 3, 0.0009, 0.4068,79,43,84,0.7695,0
 18, 1, 216, S4-20.jpg, 2, [10 240 94], green, 1, 34, 2, 1, 0.4874, 3, 0.0183, 0.4883,83,35,77,0.7695,0
 18, 1, 217, S4-20.jpg, 2, [10 240 94], green, 1, 32, 2, 1, 0.4592, 3, 0.0428, 0.4602,103,26,82,0.7695,0
 18, 1, 218, S4-20.jpg, 2, [240 168 10], orange, NaN, 197, 1, 0, 2.8123, 4, 0.1058, 2.8138,107,59,89,0.7695,0
 18, 1, 219, S3-12.jpg, 1, [10 240 94], green, 0, 67, 2, 0, 1.0555, 3, 0.0002, 1.0564,88,32,122,0.7760,0
 18, 1, 220, S4-20.jpg, 2, [240 168 10], orange, NaN, 159, 1, 0, 2.3904, 3, 0.0002, 2.3914,79,25,79,0.7695,0
 18, 1, 221, S4-20.jpg, 2, [10 240 94], green, 1, 136, 2, 1, 2.0345, 3, 0.0002, 2.0354,75,43,130,0.7695,0
 18, 1, 222, S4-20.jpg, 2, [10 240 94], green, 1, 57, 2, 1, 0.8542, 3, 0.6598, 0.8552,97,33,87,0.7695,0
 18, 1, 223, S4-20.jpg, 2, [240 168 10], orange, NaN, 141, 2, 1, 2.1256, 3, 0.2073, 2.1266,81,42,79,0.7695,0
 18, 1, 224, S4-20.jpg, 2, [10 240 94], green, 1, 100, 1, 0, 1.5195, 3, 0.3629, 1.5205,125,57,105,0.7695,0
 18, 1, 225, S3-12.jpg, 1, [181 10 240], purple, 1, 44, 1, 1, 0.6879, 3, 0.0309, 0.6889,94,34,94,0.7760,0
 18, 1, 226, S3-12.jpg, 1, [181 10 240], purple, 1, 28, 1, 1, 0.4317, 3, 0.0792, 0.4324,79,43,80,0.7760,1
 18, 1, 227, S4-20.jpg, 2, [240 168 10], orange, NaN, 152, 1, 0, 2.2806, 3, 0.0065, 2.2815,94,53,84,0.7695,0
 18, 1, 228, S3-12.jpg, 1, [181 10 240], purple, 1, 35, 1, 1, 0.5253, 3, 0.0002, 0.5261,92,23,81,0.7760,1
 18, 1, 229, S3-12.jpg, 1, [181 10 240], purple, 1, 30, 1, 1, 0.4489, 3, 0.1140, 0.4497,140,28,90,0.7760,0
 18, 1, 230, S3-12.jpg, 1, [181 10 240], purple, 1, 34, 1, 1, 0.5075, 3, 0.0460, 0.5088,82,41,76,0.7760,0
 18, 1, 231, S3-12.jpg, 1, [181 10 240], purple, 1, 42, 1, 1, 0.6077, 3, 0.5744, 0.6085,102,40,79,0.7760,0
 18, 1, 232, S4-20.jpg, 2, [181 10 240], purple, 0, 29, 1, 0, 0.4344, 3, 0.0002, 0.4351,76,41,92,0.7695,0
 18, 1, 233, S4-20.jpg, 2, [10 240 94], green, 1, 28, 2, 1, 0.4306, 3, 0.0776, 0.4313,76,25,86,0.7695,0
 18, 1, 234, S3-12.jpg, 1, [181 10 240], purple, 1, 34, 1, 1, 0.5183, 3, 0.0625, 0.5191,90,49,90,0.7760,0
 18, 1, 235, S3-12.jpg, 1, [240 168 10], orange, NaN, 177, 1, 1, 2.5739, 4, 0.0615, 2.5754,109,29,81,0.7760,1
 18, 1, 236, S4-20.jpg, 2, [10 240 94], green, 1, 29, 2, 1, 0.4421, 3, 0.0002, 0.4431,77,48,76,0.7695,0
 18, 1, 237, S3-12.jpg, 1, [181 10 240], purple, 1, 39, 1, 1, 0.5672, 3, 0.0002, 0.5687,83,37,89,0.7760,0
 18, 1, 238, S3-12.jpg, 1, [181 10 240], purple, 1, 32, 1, 1, 0.4877, 3, 0.0042, 0.4886,76,64,89,0.7760,0
 18, 1, 239, S3-12.jpg, 1, [181 10 240], purple, 1, 30, 1, 1, 0.4659, 3, 0.0002, 0.4667,79,65,109,0.7760,0
 18, 1, 240, S3-12.jpg, 1, [181 10 240], purple, 1, 27, 1, 1, 0.3567, 3, 0.0009, 0.3575,76,49,85,0.7760,0
 18, 1, 241, S4-20.jpg, 2, [10 240 94], green, 1, 34, 2, 1, 0.4878, 3, 0.0505, 0.4885,89,31,83,0.7695,0
 18, 1, 242, S3-12.jpg, 1, [181 10 240], purple, 1, 32, 1, 1, 0.4582, 3, 0.0722, 0.4589,94,42,77,0.7760,1
 18, 1, 243, S4-20.jpg, 2, [240 168 10], orange, NaN, 129, 1, 0, 1.9889, 4, 0.0331, 1.9897,84,55,106,0.7695,0
 18, 1, 244, S3-12.jpg, 1, [181 10 240], purple, 1, 20, 1, 1, 0.3065, 3, 0.0069, 0.3073,86,25,92,0.7760,0
 18, 1, 245, S3-12.jpg, 1, [10 240 94], green, 0, 24, 2, 0, 0.3325, 3, 0.1305, 0.3340,87,62,98,0.7760,0
 18, 1, 246, S3-12.jpg, 1, [181 10 240], purple, 1, 29, 2, 0, 0.4163, 3, 0.0436, 0.4178,101,28,89,0.7760,0
 18, 1, 247, S3-12.jpg, 1, [181 10 240], purple, 1, 33, 1, 1, 0.4714, 3, 0.0469, 0.4722,78,33,119,0.7760,0
 18, 1, 248, S4-20.jpg, 2, [181 10 240], purple, 0, 32, 1, 0, 0.4263, 3, 0.0715, 0.4273,95,55,107,0.7695,0
 18, 1, 249, S4-20.jpg, 2, [10 240 94], green, 1, 30, 2, 1, 0.4581, 3, 0.0987, 0.4588,91,57,82,0.7695,0
 18, 1, 250, S3-12.jpg, 1, [181 10 240], purple, 1, 32, 1, 1, 0.4804, 3, 0.1825, 0.4813,80,143,80,0.7760,0
 18, 1, 251, S3-12.jpg, 1, [181 10 240], purple, 1, 33, 1, 1, 0.4687, 3, 0.1463, 0.4697,127,87,81,0.7760,0
 18, 1, 252, S4-20.jpg, 2, [10 240 94], green, 1, 36, 2, 1, 0.5172, 3, 0.1041, 0.5180,78,35,90,0.7695,0
 18, 1, 253, S4-20.jpg, 2, [240 168 10], orange, NaN, 99, 1, 0, 1.4781, 3, 0.0466, 1.4790,92,28,110,0.7695,0
 18, 1, 254, S4-20.jpg, 2, [240 168 10], orange, NaN, 277, 1, 0, 4.0491, 4, 0.7075, 4.0499,79,26,75,0.7695,0
 18, 1, 255, S4-20.jpg, 2, [10 240 94], green, 1, 90, 2, 1, 1.3422, 3, 0.0390, 1.3432,100,85,95,0.7695,0
 18, 1, 256, S3-12.jpg, 1, [181 10 240], purple, 1, 30, 1, 1, 0.4342, 3, 0.0718, 0.4350,82,28,121,0.7760,0
 18, 1, 257, S4-20.jpg, 2, [10 240 94], green, 1, 34, 2, 1, 0.4669, 3, 0.0003, 0.4679,80,24,92,0.7695,0
 18, 1, 258, S3-12.jpg, 1, [181 10 240], purple, 1, 38, 1, 1, 0.5513, 3, 0.2416, 0.5520,83,43,83,0.7760,0
 18, 1, 259, S3-12.jpg, 1, [10 240 94], green, 0, 43, 2, 0, 0.6729, 3, 0.0024, 0.6739,81,36,104,0.7760,0
 18, 1, 260, S4-20.jpg, 2, [10 240 94], green, 1, 108, 1, 0, 1.6329, 3, 0.0994, 1.6344,80,31,86,0.7695,0
 18, 1, 261, S4-20.jpg, 2, [10 240 94], green, 1, 26, 2, 1, 0.3748, 3, 0.2757, 0.3757,89,31,100,0.7695,0
 18, 1, 262, S4-20.jpg, 2, [240 168 10], orange, NaN, 273, 2, 1, 4.0399, 4, 0.0780, 4.0411,124,37,108,0.7695,0
 18, 1, 263, S3-12.jpg, 1, [181 10 240], purple, 1, 26, 1, 1, 0.3713, 3, 0.0011, 0.3720,76,52,91,0.7760,0
 18, 1, 264, S4-20.jpg, 2, [181 10 240], purple, 0, 32, 2, 1, 0.4454, 3, 0.0043, 0.4465,87,25,75,0.7695,0
 18, 1, 265, S4-20.jpg, 2, [10 240 94], green, 1, 34, 2, 1, 0.4676, 3, 0.0002, 0.4685,78,25,107,0.7695,0
 18, 1, 266, S3-12.jpg, 1, [10 240 94], green, 0, 33, 2, 0, 0.5133, 3, 0.3025, 0.5142,112,86,76,0.7760,0
 18, 1, 267, S4-20.jpg, 2, [240 168 10], orange, NaN, 128, 1, 0, 1.9470, 4, 0.1198, 1.9478,108,26,85,0.7695,0
 18, 1, 268, S3-12.jpg, 1, [181 10 240], purple, 1, 27, 1, 1, 0.3711, 3, 0.0002, 0.3718,136,27,83,0.7760,0
 18, 1, 269, S4-20.jpg, 2, [240 168 10], orange, NaN, 114, 1, 0, 1.7142, 3, 0.1750, 1.7149,105,24,99,0.7695,1
 18, 1, 270, S4-20.jpg, 2, [240 168 10], orange, NaN, 101, 2, 1, 1.5376, 3, 0.2560, 1.5383,76,76,125,0.7695,0
 18, 1, 271, S4-20.jpg, 2, [10 240 94], green, 1, 48, 2, 1, 0.7385, 3, 0.0249, 0.7392,83,59,81,0.7695,0
 18, 1, 272, S4-20.jpg, 2, [10 240 94], green, 1, 27, 1, 0, 0.3764, 3, 0.1271, 0.3773,99,45,94,0.7695,0
 18, 1, 273, S4-20.jpg, 2, [240 168 10], orange, NaN, 217, 1, 0, 3.1602, 4, 0.1368, 3.1611,119,77,84,0.7695,1
 18, 1, 274, S4-20.jpg, 2, [240 168 10], orange, NaN, 137, 2, 1, 2.0435, 4, 0.4524, 2.0443,97,53,80,0.7695,0
 18, 1, 275, S3-12.jpg, 1, [181 10 240], purple, 1, 43, 1, 1, 0.6766, 3, 0.0527, 0.6774,103,27,87,0.7760,0
 18, 1, 276, S4-20.jpg, 2, [10 240 94], green, 1, 31, 2, 1, 0.4361, 3, 0.0276, 0.4371,77,72,91,0.7695,1