subID,block,trial,targetImg,targetIdx,cue_rgb,cue_string,congruent,respFrame,response,accuracy,RT,confResp,confRT,flickerDuration,noise1frames,signal1frames,noise2frames,coherence,catch_trial
 17, 1, 1, S1-15.jpg, 1, [181 10 240], purple, 1, 36, 1, 1, 0.5236, 4, 2.1252, 0.5273,89,25,87,0.7368,0
 17, 1, 2, S2-19.jpg, 2, [10 240 94], green, 1, 66, 2, 1, 0.8969, 3, 1.3558, 0.8978,91,31,104,0.7433,0
 17, 1, 3, S2-19.jpg, 2, [10 240 94], green, 1, 73, 2, 1, 0.9949, 3, 1.1442, 0.9959,89,27,80,0.7433,0
 17, 1, 4, S1-15.jpg, 1, [10 240 94], green, 0, 62, 2, 0, 0.8518, 2, 1.5990, 0.8525,139,31,85,0.7368,0
 17, 1, 5, S2-19.jpg, 2, [10 240 94], green, 1, 161, 2, 1, 2.2532, 3, 0.5335, 2.2540,138,25,81,0.7433,0
 17, 1, 6, S1-15.jpg, 1, [10 240 94], green, 0, 81, 1, 1, 1.1682, 1, 0.6101, 1.1696,79,33,86,0.7368,0
 17, 1, 7, S2-19.jpg, 2, [10 240 94], green, 1, 93, 2, 1, 1.3289, 2, 0.3840, 1.3296,96,27,76,0.7433,0
 17, 1, 8, S2-19.jpg, 2, [10 240 94], green, 1, 172, 2, 1, 2.4121, 2, 1.2520, 2.4130,94,51,88,0.7433,0
 17, 1, 9, S2-19.jpg, 2, [10 240 94], green, 1, 162, 2, 1, 2.2570, 2, 1.0110, 2.2580,86,58,90,0.7433,0
 17, 1, 10, S2-19.jpg, 2, [10 240 94], green, 1, 69, 2, 1, 0.9530, 3, 0.3700, 0.9539,127,36,113,0.7433,0
 17, 1, 11, S1-15.jpg, 1, [240 168 10], orange, NaN, 181, 1, 1, 2.5113, 2, 0.3370, 2.5121,84,62,83,0.7368,1
 17, 1, 12, S1-15.jpg, 1, [181 10 240], purple, 1, 42, 1, 1, 0.5939, 4, 0.5188, 0.5946,77,38,78,0.7368,0
 17, 1, 13, S2-19.jpg, 2, [10 240 94], green, 1, 89, 2, 1, 1.2833, 2, 0.4155, 1.2841,107,26,90,0.7433,0
 17, 1, 14, S2-19.jpg, 2, [10 240 94], green, 1, 119, 2, 1, 1.6733, 3, 0.5663, 1.6747,104,38,102,0.7433,1
 17, 1, 15, S2-19.jpg, 2, [10 240 94], green, 1, 256, 2, 1, 3.5955, 2, 0.3471, 3.5971,81,53,77,0.7433,0
 17, 1, 16, S1-15.jpg, 1, [240 168 10], orange, NaN, 216, 1, 1, 3.0214, 2, 0.8498, 3.0224,95,81,82,0.7368,0
 17, 1, 17, S1-15.jpg, 1, [181 10 240], purple, 1, 40, 1, 1, 0.5540, 4, 0.5899, 0.5550,103,31,76,0.7368,1
 17, 1, 18, S1-15.jpg, 1, [240 168 10], orange, NaN, 196, 1, 1, 2.7381, 2, 0.8342, 2.7388,103,41,76,0.7368,0
 17, 1, 19, S2-19.jpg, 2, [181 10 240], purple, 0, 55, 1, 0, 0.7572, 4, 2.3046, 0.7587,79,24,79,0.7433,1
 17, 1, 20, S1-15.jpg, 1, [240 168 10], orange, NaN, 250, 1, 1, 3.4912, 2, 0.7337, 3.4919,110,41,89,0.7368,0
 17, 1, 21, S1-15.jpg, 1, [181 10 240], purple, 1, 113, 1, 1, 1.6097, 3, 0.3160, 1.6106,82,29,94,0.7368,0
 17, 1, 22, S1-15.jpg, 1, [181 10 240], purple, 1, 124, 1, 1, 1.7600, 3, 0.6083, 1.7611,93,26,80,0.7368,0
 17, 1, 23, S2-19.jpg, 2, [181 10 240], purple, 0, 142, 1, 0, 2.0217, 3, 1.0198, 2.0228,136,74,93,0.7433,0
 17, 1, 24, S1-15.jpg, 1, [240 168 10], orange, NaN, 122, 2, 0, 1.7220, 2, 1.3657, 1.7231,82,53,85,0.7368,0
 17, 1, 25, S1-15.jpg, 1, [240 168 10], orange, NaN, 109, 1, 1, 1.5378, 2, 0.9055, 1.5386,86,87,102,0.7368,0
 17, 1, 26, S1-15.jpg, 1, [240 168 10], orange, NaN, 353, 1, 1, 4.9184, 2, 0.4094, 4.9192,76,49,83,0.7368,0
 17, 1, 27, S1-15.jpg, 1, [181 10 240], purple, 1, 94, 1, 1, 1.3120, 3, 0.4477, 1.3131,116,35,77,0.7368,0
 17, 1, 28, S1-15.jpg, 1, [181 10 240], purple, 1, 71, 1, 1, 1.0142, 4, 0.4410, 1.0157,80,57,82,0.7368,0
 17, 1, 29, S1-15.jpg, 1, [10 240 94], green, 0, 100, 2, 0, 1.3993, 2, 0.3992, 1.4003,99,61,85,0.7368,0
 17, 1, 30, S1-15.jpg, 1, [181 10 240], purple, 1, 229, 1, 1, 3.2099, 3, 1.7907, 3.2109,90,91,86,0.7368,0
 17, 1, 31, S2-19.jpg, 2, [181 10 240], purple, 0, 90, 1, 0, 1.2705, 2, 0.4533, 1.2714,128,44,95,0.7433,0
 17, 1, 32, S2-19.jpg, 2, [10 240 94], green, 1, 405, 2, 1, 5.7087, 2, 0.9599, 5.7101,78,143,99,0.7433,0
 17, 1, 33, S2-19.jpg, 2, [10 240 94], green, 1, 301, 1, 0, 4.2478, 2, 0.7704, 4.2488,95,24,83,0.7433,0
 17, 1, 34, S1-15.jpg, 1, [181 10 240], purple, 1, 72, 1, 1, 0.9895, 3, 0.3259, 0.9903,94,62,85,0.7368,0
 17, 1, 35, S2-19.jpg, 2, [181 10 240], purple, 0, 175, 1, 0, 2.4639, 3, 0.3916, 2.4648,87,23,85,0.7433,0
 17, 1, 36, S1-15.jpg, 1, [240 168 10], orange, NaN, 196, 1, 1, 2.7371, 2, 0.2113, 2.7386,91,27,112,0.7368,0
 17, 1, 37, S2-19.jpg, 2, [10 240 94], green, 1, 366, 2, 1, 5.0636, 1, 1.1606, 5.0644,120,26,89,0.7433,1
 17, 1, 38, S2-19.jpg, 2, [10 240 94], green, 1, 142, 2, 1, 2.0065, 1, 0.2368, 2.0073,84,33,108,0.7433,0
 17, 1, 39, S1-15.jpg, 1, [181 10 240], purple, 1, 93, 1, 1, 1.3359, 2, 0.1978, 1.3366,76,32,102,0.7368,1
 17, 1, 40, S1-15.jpg, 1, [240 168 10], orange, NaN, 372, 1, 1, 5.1961, 1, 0.6698, 5.1969,78,28,79,0.7368,0
 17, 1, 41, S1-15.jpg, 1, [181 10 240], purple, 1, 125, 1, 1, 1.7478, 3, 0.3218, 1.7487,102,37,106,0.7368,0
 17, 1, 42, S1-15.jpg, 1, [181 10 240], purple, 1, 106, 1, 1, 1.4818, 2, 0.2881, 1.4831,76,27,94,0.7368,0
 17, 1, 43, S1-15.jpg, 1, [181 10 240], purple, 1, 184, 1, 1, 2.5924, 2, 0.2865, 2.5935,141,54,84,0.7368,0
 17, 1, 44, S2-19.jpg, 2, [10 240 94], green, 1, 200, 1, 0, 2.8208, 2, 0.3067, 2.8218,112,27,96,0.7433,0
 17, 1, 45, S1-15.jpg, 1, [240 168 10], orange, NaN, 241, 1, 1, 3.3690, 2, 0.3515, 3.3705,89,40,123,0.7368,0
 17, 1, 46, S2-19.jpg, 2, [10 240 94], green, 1, 390, 2, 1, 5.5766, 2, 0.2841, 5.5773,82,35,79,0.7433,0
 17, 1, 47, S2-19.jpg, 2, [10 240 94], green, 1, 255, 2, 1, 3.5501, 2, 0.3372, 3.5511,75,28,103,0.7433,0
 17, 1, 48, S1-15.jpg, 1, [181 10 240], purple, 1, 190, 1, 1, 2.6730, 1, 0.4184, 2.6738,76,30,80,0.7368,0
 17, 1, 49, S2-19.jpg, 2, [10 240 94], green, 1, 297, 1, 0, 4.1369, 1, 1.0311, 4.1379,106,64,100,0.7433,0
 17, 1, 50, S1-15.jpg, 1, [240 168 10], orange, NaN, 228, 1, 1, 3.2071, 1, 0.4441, 3.2080,81,31,78,0.7368,0
 17, 1, 51, S1-15.jpg, 1, [10 240 94], green, 0, 271, 2, 0, 3.8176, 1, 0.7040, 3.8191,116,36,97,0.7368,0
 17, 1, 52, S1-15.jpg, 1, [181 10 240], purple, 1, 266, 2, 0, 3.6891, 1, 0.1649, 3.6901,105,29,134,0.7368,0
 17, 1, 53, S1-15.jpg, 1, [10 240 94], green, 0, 235, 1, 1, 3.2625, 1, 0.0002, 3.2633,81,55,108,0.7368,0
 17, 1, 54, S1-15.jpg, 1, [240 168 10], orange, NaN, 292, 2, 0, 4.0978, 2, 1.4324, 4.0993,86,35,95,0.7368,0
 17, 1, 55, S1-15.jpg, 1, [240 168 10], orange, NaN, 316, 2, 0, 4.4038, 1, 0.3278, 4.4046,90,43,80,0.7368,0
 17, 1, 56, S2-19.jpg, 2, [10 240 94], green, 1, 278, 1, 0, 3.8931, 1, 1.0500, 3.8939,84,25,120,0.7433,0
 17, 1, 57, S1-15.jpg, 1, [240 168 10], orange, NaN, 293, 2, 0, 4.0905, 2, 0.9593, 4.0919,76,24,78,0.7368,0
 17, 1, 58, S2-19.jpg, 2, [181 10 240], purple, 0, 326, 1, 0, 4.5256, 1, 0.1932, 4.5265,78,56,86,0.7433,0
 17, 1, 59, S2-19.jpg, 2, [10 240 94], green, 1, 324, 2, 1, 4.5535, 2, 0.5209, 4.5543,83,33,97,0.7433,0
 17, 1, 60, S1-15.jpg, 1, [240 168 10], orange, NaN, 299, 2, 0, 4.1588, 3, 0.9038, 4.1597,118,30,93,0.7368,0
 17, 1, 61, S1-15.jpg, 1, [181 10 240], purple, 1, 92, 1, 1, 1.3081, 3, 0.4115, 1.3092,82,37,84,0.7368,0
 17, 1, 62, S1-15.jpg, 1, [10 240 94], green, 0, 169, 1, 1, 2.3766, 2, 0.9009, 2.3773,106,48,77,0.7368,0
 17, 1, 63, S1-15.jpg, 1, [181 10 240], purple, 1, 241, 1, 1, 3.3949, 2, 0.8124, 3.3957,80,23,128,0.7368,0
 17, 1, 64, S1-15.jpg, 1, [181 10 240], purple, 1, 131, 1, 1, 1.8280, 3, 0.4860, 1.8290,79,47,91,0.7368,0
 17, 1, 65, S1-15.jpg, 1, [181 10 240], purple, 1, 111, 1, 1, 1.5777, 3, 0.3195, 1.5785,109,45,91,0.7368,0
 17, 1, 66, S1-15.jpg, 1, [181 10 240], purple, 1, 177, 1, 1, 2.4568, 3, 0.2730, 2.4576,80,39,77,0.7368,0
 17, 1, 67, S2-19.jpg, 2, [10 240 94], green, 1, 264, 2, 1, 3.6605, 2, 0.3062, 3.6614,118,30,83,0.7433,0
 17, 1, 68, S2-19.jpg, 2, [10 240 94], green, 1, 451, 2, 1, 6.2718, 3, 0.9306, 6.2728,85,28,91,0.7433,0
 17, 1, 69, S2-19.jpg, 2, [10 240 94], green, 1, 229, 2, 1, 3.1721, 3, 0.3509, 3.1736,78,28,80,0.7433,0
 17, 1, 70, S1-15.jpg, 1, [10 240 94], green, 0, 273, 1, 1, 3.7812, 1, 0.3770, 3.7827,113,61,87,0.7368,0
 17, 1, 71, S1-15.jpg, 1, [240 168 10], orange, NaN, 262, 1, 1, 3.6631, 3, 1.1252, 3.6638,114,25,79,0.7368,0
 17, 1, 72, S2-19.jpg, 2, [10 240 94], green, 1, 281, 1, 0, 3.9219, 2, 0.6073, 3.9227,100,44,117,0.7433,0
 17, 1, 73, S2-19.jpg, 2, [10 240 94], green, 1, 375, 1, 0, 5.2145, 2, 0.6175, 5.2154,96,75,82,0.7433,0
 17, 1, 74, S1-15.jpg, 1, [181 10 240], purple, 1, 276, 2, 0, 3.8224, 1, 1.6357, 3.8239,106,25,87,0.7368,1
 17, 1, 75, S2-19.jpg, 2, [10 240 94], green, 1, 408, 2, 1, 5.6906, 2, 0.2630, 5.6914,131,88,76,0.7433,0
 17, 1, 76, S1-15.jpg, 1, [181 10 240], purple, 1, 150, 1, 1, 2.1059, 2, 0.8831, 2.1074,87,34,89,0.7368,0
 17, 1, 77, S1-15.jpg, 1, [240 168 10], orange, NaN, 163, 1, 1, 2.3174, 1, 0.5297, 2.3181,101,47,86,0.7368,0
 17, 1, 78, S1-15.jpg, 1, [181 10 240], purple, 1, 236, 1, 1, 3.2696, 3, 0.7341, 3.2706,93,25,81,0.7368,1
 17, 1, 79, S2-19.jpg, 2, [10 240 94], green, 1, 311, 2, 1, 4.3932, 2, 0.6750, 4.3940,107,36,90,0.7433,0
 17, 1, 80, S1-15.jpg, 1, [240 168 10], orange, NaN, 201, 1, 1, 2.8260, 1, 0.2713, 2.8274,102,31,125,0.7368,0
 17, 1, 81, S1-15.jpg, 1, [181 10 240], purple, 1, 316, 1, 1, 4.4105, 2, 0.3508, 4.4112,94,40,95,0.7368,0
 17, 1, 82, S2-19.jpg, 2, [10 240 94], green, 1, 331, 2, 1, 4.5704, 1, 1.2862, 4.5715,80,41,79,0.7433,0
 17, 1, 83, S1-15.jpg, 1, [10 240 94], green, 0, 310, 2, 0, 4.3259, 3, 1.1073, 4.3269,78,26,131,0.7368,0
 17, 1, 84, S2-19.jpg, 2, [10 240 94], green, 1, 204, 2, 1, 2.8660, 2, 0.4990, 2.8670,195,35,108,0.7433,0
 17, 1, 85, S1-15.jpg, 1, [181 10 240], purple, 1, 325, 1, 1, 4.5157, 1, 0.4102, 4.5165,83,45,77,0.7368,0
 17, 1, 86, S2-19.jpg, 2, [10 240 94], green, 1, 288, 2, 1, 4.0298, 3, 0.6866, 4.0306,115,57,88,0.7433,0
 17, 1, 87, S1-15.jpg, 1, [181 10 240], purple, 1, 319, 2, 0, 4.4262, 2, 0.2275, 4.4277,77,32,133,0.7368,0
 17, 1, 88, S1-15.jpg, 1, [240 168 10], orange, NaN, 352, 2, 0, 4.8801, 1, 0.3469, 4.8810,79,35,136,0.7368,0
 17, 1, 89, S1-15.jpg, 1, [181 10 240], purple, 1, 194, 1, 1, 2.7606, 1, 0.5593, 2.7614,86,23,105,0.7368,0
 17, 1, 90, S1-15.jpg, 1, [181 10 240], purple, 1, 368, 2, 0, 5.1678, 1, 0.6494, 5.1685,130,26,90,0.7368,0
 17, 1, 91, S1-15.jpg, 1, [181 10 240], purple, 1, 179, 1, 1, 2.5043, 2, 0.3179, 2.5051,93,28,94,0.7368,0
 17, 1, 92, S1-15.jpg, 1, [10 240 94], green, 0, 309, 1, 1, 4.3285, 1, 0.2905, 4.3295,84,63,75,0.7368,0
 17, 1, 93, S1-15.jpg, 1, [181 10 240], purple, 1, 167, 1, 1, 2.3244, 2, 0.3961, 2.3255,86,33,142,0.7368,0
 17, 1, 94, S1-15.jpg, 1, [10 240 94], green, 0, 250, 1, 1, 3.4715, 1, 0.2270, 3.4730,81,40,87,0.7368,0
 17, 1, 95, S1-15.jpg, 1, [240 168 10], orange, NaN, 362, 2, 0, 5.0660, 2, 1.0003, 5.0669,78,40,93,0.7368,0
 17, 1, 96, S2-19.jpg, 2, [10 240 94], green, 1, 216, 2, 1, 3.0093, 1, 0.0607, 3.0101,82,64,78,0.7433,0
 17, 1, 97, S2-19.jpg, 2, [240 168 10], orange, NaN, 191, 1, 0, 2.6872, 2, 0.1928, 2.6887,107,24,92,0.7433,1
 17, 1, 98, S1-15.jpg, 1, [10 240 94], green, 0, 296, 1, 1, 4.1660, 1, 0.4398, 4.1670,99,39,83,0.7368,0
 17, 1, 99, S2-19.jpg, 2, [10 240 94], green, 1, 316, 2, 1, 4.3986, 3, 1.8472, 4.3994,78,25,103,0.7433,0
 17, 1, 100, S2-19.jpg, 2, [181 10 240], purple, 0, 268, 1, 0, 3.7335, 4, 1.7086, 3.7345,81,32,100,0.7433,0
 17, 1, 101, S2-19.jpg, 2, [10 240 94], green, 1, 166, 2, 1, 2.3325, 2, 0.6380, 2.3335,85,32,78,0.7433,0
 17, 1, 102, S2-19.jpg, 2, [240 168 10], orange, NaN, 214, 2, 1, 3.0163, 1, 0.3387, 3.0171,108,68,80,0.7433,1
 17, 1, 103, S1-15.jpg, 1, [10 240 94], green, 0, 225, 1, 1, 3.1599, 1, 0.0358, 3.1606,80,39,127,0.7368,0
 17, 1, 104, S1-15.jpg, 1, [181 10 240], purple, 1, 226, 1, 1, 3.1593, 3, 0.3234, 3.1604,95,50,83,0.7368,0
 17, 1, 105, S2-19.jpg, 2, [10 240 94], green, 1, 321, 1, 0, 4.4635, 1, 0.2184, 4.4649,79,59,90,0.7433,0
 17, 1, 106, S1-15.jpg, 1, [240 168 10], orange, NaN, 327, 2, 0, 4.5291, 2, 0.0927, 4.5301,76,28,124,0.7368,0
 17, 1, 107, S2-19.jpg, 2, [181 10 240], purple, 0, 127, 1, 0, 1.7947, 3, 0.3314, 1.7957,87,52,115,0.7433,1
 17, 1, 108, S2-19.jpg, 2, [10 240 94], green, 1, 247, 1, 0, 3.4581, 2, 0.2796, 3.4589,110,34,77,0.7433,0
 17, 1, 109, S1-15.jpg, 1, [181 10 240], purple, 1, 211, 1, 1, 2.9552, 3, 0.2703, 2.9561,85,53,79,0.7368,0
 17, 1, 110, S2-19.jpg, 2, [10 240 94], green, 1, 351, 2, 1, 4.8490, 2, 0.2969, 4.8500,142,40,94,0.7433,0
 17, 1, 111, S2-19.jpg, 2, [10 240 94], green, 1, 365, 1, 0, 5.0821, 1, 0.4458, 5.0835,87,56,98,0.7433,0
 17, 1, 112, S1-15.jpg, 1, [240 168 10], orange, NaN, 114, 1, 1, 1.6082, 1, 0.2283, 1.6091,123,72,99,0.7368,0
 17, 1, 113, S2-19.jpg, 2, [181 10 240], purple, 0, 162, 1, 0, 2.2662, 3, 0.1760, 2.2671,83,29,98,0.7433,0
 17, 1, 114, S1-15.jpg, 1, [181 10 240], purple, 1, 178, 1, 1, 2.4773, 2, 0.4575, 2.4782,94,33,82,0.7368,0
 17, 1, 115, S1-15.jpg, 1, [181 10 240], purple, 1, 343, 1, 1, 4.7619, 2, 0.5158, 4.7629,92,65,76,0.7368,0
 17, 1, 116, S1-15.jpg, 1, [181 10 240], purple, 1, 312, 2, 0, 4.3093, 1, 0.5127, 4.3104,100,55,77,0.7368,0
 17, 1, 117, S1-15.jpg, 1, [181 10 240], purple, 1, 274, 1, 1, 3.8423, 3, 0.7548, 3.8432,89,29,87,0.7368,0
 17, 1, 118, S2-19.jpg, 2, [181 10 240], purple, 0, 307, 1, 0, 4.3043, 2, 0.4314, 4.3051,77,24,91,0.7433,0
 17, 1, 119, S2-19.jpg, 2, [10 240 94], green, 1, 310, 1, 0, 4.2876, 1, 0.4711, 4.2884,140,42,88,0.7433,0
 17, 1, 120, S1-15.jpg, 1, [181 10 240], purple, 1, 181, 1, 1, 2.5496, 2, 0.1284, 2.5506,84,76,113,0.7368,0
 17, 1, 121, S1-15.jpg, 1, [240 168 10], orange, NaN, 199, 1, 1, 2.7723, 1, 1.2890, 2.7733,81,24,91,0.7368,0
 17, 1, 122, S1-15.jpg, 1, [10 240 94], green, 0, 177, 1, 1, 2.4726, 1, 0.0218, 2.4734,100,43,100,0.7368,0
 17, 1, 123, S1-15.jpg, 1, [10 240 94], green, 0, 324, 1, 1, 4.5559, 2, 1.4183, 4.5574,96,38,132,0.7368,0
 17, 1, 124, S2-19.jpg, 2, [10 240 94], green, 1, 176, 1, 0, 2.4505, 2, 0.3457, 2.4513,120,66,99,0.7433,0
 17, 1, 125, S1-15.jpg, 1, [10 240 94], green, 0, 367, 1, 1, 5.1566, 3, 0.6219, 5.1575,119,29,81,0.7368,0
 17, 1, 126, S1-15.jpg, 1, [181 10 240], purple, 1, 143, 1, 1, 2.0360, 4, 0.3167, 2.0367,82,25,143,0.7368,0
 17, 1, 127, S2-19.jpg, 2, [240 168 10], orange, NaN, 254, 2, 1, 3.5642, 1, 0.3483, 3.5652,76,30,78,0.7433,1
 17, 1, 128, S2-19.jpg, 2, [181 10 240], purple, 0, 164, 1, 0, 2.3065, 3, 0.0888, 2.3075,79,32,87,0.7433,0
 17, 1, 129, S2-19.jpg, 2, [10 240 94], green, 1, 264, 1, 0, 3.7067, 2, 0.8789, 3.7074,96,73,88,0.7433,0
 17, 1, 130, S1-15.jpg, 1, [181 10 240], purple, 1, 93, 1, 1, 1.3228, 3, 0.0111, 1.3239,81,35,120,0.7368,0
 17, 1, 131, S1-15.jpg, 1, [240 168 10], orange, NaN, 459, 1, 1, 6.4285, 2, 0.6081, 6.4293,108,35,138,0.7368,0
 17, 1, 132, S1-15.jpg, 1, [181 10 240], purple, 1, 372, 2, 0, 5.1860, 1, 0.2484, 5.1870,88,67,95,0.7368,0
 17, 1, 133, S2-19.jpg, 2, [10 240 94], green, 1, 262, 2, 1, 3.6986, 2, 0.5490, 3.6996,77,36,110,0.7433,0
 17, 1, 134, S1-15.jpg, 1, [181 10 240], purple, 1, 227, 1, 1, 3.1713, 2, 0.3239, 3.1722,87,37,85,0.7368,0
 17, 1, 135, S1-15.jpg, 1, [181 10 240], purple, 1, 243, 1, 1, 3.3843, 2, 0.2590, 3.3852,109,40,101,0.7368,0
 17, 1, 136, S2-19.jpg, 2, [181 10 240], purple, 0, 252, 1, 0, 3.5124, 1, 0.6016, 3.5131,76,28,82,0.7433,0
 17, 1, 137, S2-19.jpg, 2, [10 240 94], green, 1, 269, 2, 1, 3.7497, 2, 0.2836, 3.7507,77,57,114,0.7433,0
 17, 1, 138, S2-19.jpg, 2, [10 240 94], green, 1, 317, 2, 1, 4.4319, 2, 0.4032, 4.4334,78,37,80,0.7433,0
 17, 1, 139, S1-15.jpg, 1, [240 168 10], orange, NaN, 167, 1, 1, 2.3639, 1, 0.3060, 2.3648,82,80,92,0.7368,0
 17, 1, 140, S1-15.jpg, 1, [240 168 10], orange, NaN, 236, 1, 1, 3.2856, 1, 0.5186, 3.2864,129,56,83,0.7368,0
 17, 1, 141, S2-19.jpg, 2, [181 10 240], purple, 0, 211, 1, 0, 2.9891, 3, 1.1358, 2.9899,93,42,139,0.7433,0
 17, 1, 142, S2-19.jpg, 2, [10 240 94], green, 1, 179, 2, 1, 2.5332, 1, 0.3756, 2.5341,77,25,84,0.7433,0
 17, 1, 143, S2-19.jpg, 2, [240 168 10], orange, NaN, 263, 2, 1, 3.6739, 2, 0.2358, 3.6754,86,31,77,0.7433,0
 17, 1, 144, S2-19.jpg, 2, [10 240 94], green, 1, 222, 2, 1, 3.0864, 1, 0.0827, 3.0874,75,30,96,0.7433,0
 17, 1, 145, S1-15.jpg, 1, [181 10 240], purple, 1, 283, 1, 1, 3.9706, 1, 1.1169, 3.9716,81,143,141,0.7368,1
 17, 1, 146, S1-15.jpg, 1, [181 10 240], purple, 1, 194, 1, 1, 2.7269, 3, 0.1212, 2.7279,112,58,95,0.7368,1
 17, 1, 147, S2-19.jpg, 2, [10 240 94], green, 1, 102, 2, 1, 1.4397, 2, 0.5438, 1.4405,75,25,135,0.7433,0
 17, 1, 148, S1-15.jpg, 1, [181 10 240], purple, 1, 156, 1, 1, 2.1709, 3, 0.7660, 2.1719,87,28,78,0.7368,0
 17, 1, 149, S2-19.jpg, 2, [10 240 94], green, 1, 319, 2, 1, 4.4667, 3, 0.1448, 4.4679,93,29,101,0.7433,0
 17, 1, 150, S2-19.jpg, 2, [240 168 10], orange, NaN, 251, 2, 1, 3.5589, 1, 0.2798, 3.5598,77,51,81,0.7433,0
 17, 1, 151, S1-15.jpg, 1, [181 10 240], purple, 1, 297, 1, 1, 4.1948, 3, 0.1190, 4.1957,77,26,84,0.7368,0
 17, 1, 152, S1-15.jpg, 1, [181 10 240], purple, 1, 356, 1, 1, 4.9624, 4, 0.2781, 4.9637,117,25,97,0.7368,0
 17, 1, 153, S1-15.jpg, 1, [181 10 240], purple, 1, 222, 1, 1, 3.1018, 3, 0.0002, 3.1027,76,50,86,0.7368,0
 17, 1, 154, S1-15.jpg, 1, [181 10 240], purple, 1, 170, 1, 1, 2.4068, 3, 0.1589, 2.4077,77,68,106,0.7368,0
 17, 1, 155, S1-15.jpg, 1, [181 10 240], purple, 1, 190, 1, 1, 2.7129, 2, 0.0049, 2.7137,97,42,103,0.7368,0
 17, 1, 156, S1-15.jpg, 1, [181 10 240], purple, 1, 339, 1, 1, 4.7673, 4, 0.5062, 4.7682,104,67,77,0.7368,0
 17, 1, 157, S2-19.jpg, 2, [10 240 94], green, 1, 214, 2, 1, 2.9886, 3, 0.1395, 2.9895,78,43,79,0.7433,1
 17, 1, 158, S1-15.jpg, 1, [181 10 240], purple, 1, 288, 1, 1, 4.0427, 2, 0.3607, 4.0436,98,33,111,0.7368,0
 17, 1, 159, S1-15.jpg, 1, [181 10 240], purple, 1, 103, 1, 1, 1.4717, 2, 0.3668, 1.4725,88,29,78,0.7368,0
 17, 1, 160, S2-19.jpg, 2, [10 240 94], green, 1, 308, 2, 1, 4.3206, 3, 0.0002, 4.3216,90,55,107,0.7433,0
 17, 1, 161, S1-15.jpg, 1, [181 10 240], purple, 1, 356, 1, 1, 4.9928, 4, 0.0807, 4.9943,104,26,75,0.7368,0
 17, 1, 162, S2-19.jpg, 2, [10 240 94], green, 1, 252, 2, 1, 3.5497, 1, 0.2179, 3.5508,82,69,100,0.7433,0
 17, 1, 163, S1-15.jpg, 1, [181 10 240], purple, 1, 241, 1, 1, 3.3428, 3, 0.3158, 3.3438,75,60,99,0.7368,0
 17, 1, 164, S2-19.jpg, 2, [10 240 94], green, 1, 151, 2, 1, 2.1026, 3, 0.0002, 2.1034,79,32,79,0.7433,0
 17, 1, 165, S2-19.jpg, 2, [240 168 10], orange, NaN, 310, 2, 1, 4.3457, 1, 0.0901, 4.3464,133,34,105,0.7433,0
 17, 1, 166, S2-19.jpg, 2, [240 168 10], orange, NaN, 279, 2, 1, 3.8705, 2, 0.3848, 3.8720,88,23,89,0.7433,0
 17, 1, 167, S1-15.jpg, 1, [181 10 240], purple, 1, 346, 1, 1, 4.8286, 3, 0.3076, 4.8296,79,86,107,0.7368,0
 17, 1, 168, S2-19.jpg, 2, [240 168 10], orange, NaN, 230, 2, 1, 3.2390, 1, 0.9433, 3.2397,77,29,81,0.7433,0
 17, 1, 169, S2-19.jpg, 2, [181 10 240], purple, 0, 340, 2, 1, 4.7618, 1, 0.2073, 4.7632,78,78,81,0.7433,0
 17, 1, 170, S2-19.jpg, 2, [10 240 94], green, 1, 362, 2, 1, 5.0926, 3, 0.0204, 5.0935,117,48,75,0.7433,0
 17, 1, 171, S2-19.jpg, 2, [10 240 94], green, 1, 157, 2, 1, 2.2211, 3, 0.0002, 2.2221,76,54,126,0.7433,0
 17, 1, 172, S1-15.jpg, 1, [181 10 240], purple, 1, 290, 1, 1, 4.0728, 3, 0.0877, 4.0737,98,34,90,0.7368,0
 17, 1, 173, S1-15.jpg, 1, [181 10 240], purple, 1, 191, 1, 1, 2.6858, 1, 0.1075, 2.6869,137,44,103,0.7368,1
 17, 1, 174, S2-19.jpg, 2, [240 168 10], orange, NaN, 393, 1, 0, 5.5293, 3, 0.3074, 5.5302,97,34,94,0.7433,0
 17, 1, 175, S2-19.jpg, 2, [10 240 94], green, 1, 337, 2, 1, 4.7216, 2, 0.3013, 4.7226,86,27,75,0.7433,1
 17, 1, 176, S2-19.jpg, 2, [240 168 10], orange, NaN, 317, 2, 1, 4.4240, 1, 0.4742, 4.4255,82,26,117,0.7433,0
 17, 1, 177, S2-19.jpg, 2, [240 168 10], orange, NaN, 284, 2, 1, 3.9950, 2, 0.3320, 3.9960,87,38,84,0.7433,0
 17, 1, 178, S2-19.jpg, 2, [10 240 94], green, 1, 376, 2, 1, 5.2720, 1, 0.5021, 5.2731,79,48,101,0.7433,0
 17, 1, 179, S1-15.jpg, 1, [181 10 240], purple, 1, 250, 1, 1, 3.5574, 3, 0.2564, 3.5582,90,31,80,0.7368,0
 17, 1, 180, S2-19.jpg, 2, [10 240 94], green, 1, 196, 2, 1, 2.7554, 1, 0.7111, 2.7563,134,37,102,0.7433,1
 17, 1, 181, S2-19.jpg, 2, [10 240 94], green, 1, 151, 2, 1, 2.1336, 3, 0.1586, 2.1345,84,26,107,0.7433,1
 17, 1, 182, S2-19.jpg, 2, [181 10 240], purple, 0, 187, 1, 0, 2.6559, 3, 0.5063, 2.6569,96,37,129,0.7433,0
 17, 1, 183, S2-19.jpg, 2, [240 168 10], orange, NaN, 200, 1, 0, 2.8124, 1, 0.2256, 2.8134,80,36,79,0.7433,0
 17, 1, 184, S2-19.jpg, 2, [181 10 240], purple, 0, 159, 1, 0, 2.2556, 3, 0.0637, 2.2566,105,47,90,0.7433,0
 17, 1, 185, S2-19.jpg, 2, [10 240 94], green, 1, 225, 2, 1, 3.1250, 2, 0.1885, 3.1264,84,35,82,0.7433,0
 17, 1, 186, S1-15.jpg, 1, [181 10 240], purple, 1, 202, 1, 1, 2.8525, 3, 0.0003, 2.8535,89,59,96,0.7368,0
 17, 1, 187, S1-15.jpg, 1, [181 10 240], purple, 1, 328, 1, 1, 4.6286, 2, 0.1628, 4.6301,95,89,91,0.7368,0
 17, 1, 188, S2-19.jpg, 2, [10 240 94], green, 1, 150, 2, 1, 2.1515, 1, 0.0003, 2.1527,90,31,84,0.7433,0
 17, 1, 189, S1-15.jpg, 1, [181 10 240], purple, 1, 321, 1, 1, 4.5414, 1, 0.2460, 4.5431,91,28,86,0.7368,0
 17, 1, 190, S1-15.jpg, 1, [181 10 240], purple, 1, 502, 1, 1, 7.0431, 1, 0.2778, 7.0438,98,79,111,0.7368,0
 17, 1, 191, S1-15.jpg, 1, [181 10 240], purple, 1, 87, 1, 1, 1.2479, 2, 0.2177, 1.2489,75,34,79,0.7368,0
 17, 1, 192, S2-19.jpg, 2, [240 168 10], orange, NaN, 175, 1, 0, 2.4684, 1, 0.2028, 2.4693,80,47,104,0.7433,0
 17, 1, 193, S2-19.jpg, 2, [181 10 240], purple, 0, 319, 1, 0, 4.5023, 2, 0.6695, 4.5032,126,26,81,0.7433,0
 17, 1, 194, S1-15.jpg, 1, [181 10 240], purple, 1, 298, 2, 0, 4.1579, 1, 0.3939, 4.1587,85,24,89,0.7368,0
 17, 1, 195, S1-15.jpg, 1, [10 240 94], green, 0, 166, 2, 0, 2.3289, 1, 0.0002, 2.3304,132,50,76,0.7368,0
 17, 1, 196, S1-15.jpg, 1, [181 10 240], purple, 1, 410, 1, 1, 5.7263, 2, 0.8509, 5.7273,105,33,81,0.7368,0
 17, 1, 197, S2-19.jpg, 2, [10 240 94], green, 1, 280, 2, 1, 3.9222, 1, 0.4184, 3.9232,88,34,87,0.7433,0
 17, 1, 198, S2-19.jpg, 2, [181 10 240], purple, 0, 312, 1, 0, 4.4070, 1, 1.4233, 4.4077,143,31,109,0.7433,0
 17, 1, 199, S2-19.jpg, 2, [10 240 94], green, 1, 262, 2, 1, 3.7020, 1, 0.1695, 3.7029,85,26,83,0.7433,0
 17, 1, 200, S2-19.jpg, 2, [181 10 240], purple, 0, 380, 2, 1, 5.2959, 1, 0.0733, 5.2967,98,84,76,0.7433,0
 17, 1, 201, S2-19.jpg, 2, [240 168 10], orange, NaN, 349, 2, 1, 4.8778, 2, 0.2221, 4.8786,109,25,92,0.7433,0
 17, 1, 202, S1-15.jpg, 1, [10 240 94], green, 0, 297, 2, 0, 4.1436, 3, 0.4798, 4.1445,103,27,77,0.7368,1
 17, 1, 203, S2-19.jpg, 2, [10 240 94], green, 1, 322, 2, 1, 4.5452, 1, 0.6637, 4.5461,89,44,75,0.7433,0
 17, 1, 204, S2-19.jpg, 2, [240 168 10], orange, NaN, 450, 2, 1, 6.2751, 1, 0.4370, 6.2762,115,58,78,0.7433,0
 17, 1, 205, S1-15.jpg, 1, [181 10 240], purple, 1, 172, 1, 1, 2.4130, 3, 0.1422, 2.4139,103,49,82,0.7368,0
 17, 1, 206, S2-19.jpg, 2, [10 240 94], green, 1, 270, 2, 1, 3.7542, 3, 0.1817, 3.7550,92,63,85,0.7433,0
 17, 1, 207, S2-19.jpg, 2, [240 168 10], orange, NaN, 356, 2, 1, 4.9683, 1, 0.4367, 4.9693,87,51,86,0.7433,0
 17, 1, 208, S2-19.jpg, 2, [240 168 10], orange, NaN, 158, 2, 1, 2.2284, 2, 0.0973, 2.2299,94,27,80,0.7433,0
 17, 1, 209, S2-19.jpg, 2, [10 240 94], green, 1, 252, 2, 1, 3.5595, 1, 0.5305, 3.5605,83,83,114,0.7433,0
 17, 1, 210, S2-19.jpg, 2, [10 240 94], green, 1, 333, 2, 1, 4.7027, 3, 0.1544, 4.7035,95,85,82,0.7433,0
 17, 1, 211, S2-19.jpg, 2, [10 240 94], green, 1, 244, 2, 1, 3.4310, 2, 0.1824, 3.4320,80,41,85,0.7433,0
 17, 1, 212, S2-19.jpg, 2, [10 240 94], green, 1, 273, 2, 1, 3.8212, 1, 0.0002, 3.8225,89,29,84,0.7433,0
 17, 1, 213, S1-15.jpg, 1, [181 10 240], purple, 1, 333, 1, 1, 4.6864, 2, 0.3922, 4.6872,79,27,195,0.7368,0
 17, 1, 214, S2-19.jpg, 2, [10 240 94], green, 1, 293, 2, 1, 4.1363, 1, 0.0575, 4.1372,90,70,92,0.7433,0
 17, 1, 215, S2-19.jpg, 2, [181 10 240], purple, 0, 233, 2, 1, 3.2715, 1, 1.1048, 3.2723,79,30,106,0.7433,0
 17, 1, 216, S2-19.jpg, 2, [10 240 94], green, 1, 287, 2, 1, 4.0469, 2, 0.8248, 4.0479,82,24,77,0.7433,0
 17, 1, 217, S1-15.jpg, 1, [240 168 10], orange, NaN, 177, 2, 0, 2.4745, 4, 0.0003, 2.4753,78,33,81,0.7368,1
 17, 1, 218, S2-19.jpg, 2, [10 240 94], green, 1, 283, 2, 1, 4.0060, 2, 0.8973, 4.0074,88,36,88,0.7433,0
 17, 1, 219, S2-19.jpg, 2, [10 240 94], green, 1, 289, 2, 1, 4.0778, 3, 0.1634, 4.0786,83,41,93,0.7433,0
 17, 1, 220, S2-19.jpg, 2, [240 168 10], orange, NaN, 297, 2, 1, 4.1704, 3, 0.2749, 4.1711,97,52,137,0.7433,0
 17, 1, 221, S1-15.jpg, 1, [10 240 94], green, 0, NaN, 1, 1, 7.8158, 1, 0.9553, 7.5631,92,24,119,0.7368,0
 17, 1, 222, S2-19.jpg, 2, [240 168 10], orange, NaN, 229, 1, 0, 3.2178, 1, 0.0003, 3.2187,83,30,109,0.7433,0
 17, 1, 223, S2-19.jpg, 2, [10 240 94], green, 1, 161, 2, 1, 2.2835, 2, 0.1985, 2.2844,85,24,76,0.7433,0
 17, 1, 224, S2-19.jpg, 2, [10 240 94], green, 1, 175, 2, 1, 2.4293, 1, 0.1306, 2.4304,135,32,88,0.7433,0
 17, 1, 225, S2-19.jpg, 2, [240 168 10], orange, NaN, 173, 2, 1, 2.3980, 1, 0.0598, 2.3990,111,45,96,0.7433,0
 17, 1, 226, S2-19.jpg, 2, [10 240 94], green, 1, 197, 1, 0, 2.7536, 1, 0.0011, 2.7546,83,66,80,0.7433,0
 17, 1, 227, S1-15.jpg, 1, [181 10 240], purple, 1, 226, 1, 1, 3.1572, 1, 0.0468, 3.1580,122,38,86,0.7368,0
 17, 1, 228, S2-19.jpg, 2, [240 168 10], orange, NaN, 239, 2, 1, 3.3658, 1, 0.1286, 3.3668,88,36,121,0.7433,0
 17, 1, 229, S1-15.jpg, 1, [181 10 240], purple, 1, 167, 1, 1, 2.3396, 3, 0.1826, 2.3406,84,25,82,0.7368,0
 17, 1, 230, S1-15.jpg, 1, [181 10 240], purple, 1, 284, 1, 1, 4.0366, 3, 0.5334, 4.0374,97,46,93,0.7368,0
 17, 1, 231, S1-15.jpg, 1, [181 10 240], purple, 1, 237, 1, 1, 3.3180, 3, 0.4349, 3.3195,97,51,92,0.7368,1
 17, 1, 232, S1-15.jpg, 1, [181 10 240], purple, 1, 194, 1, 1, 2.7247, 2, 0.1002, 2.7257,101,41,76,0.7368,0
 17, 1, 233, S2-19.jpg, 2, [181 10 240], purple, 0, 190, 1, 0, 2.6894, 2, 0.1231, 2.6904,124,45,110,0.7433,0
 17, 1, 234, S1-15.jpg, 1, [240 168 10], orange, NaN, 181, 1, 1, 2.5820, 2, 0.1910, 2.5828,88,39,78,0.7368,1
 17, 1, 235, S2-19.jpg, 2, [10 240 94], green, 1, 249, 2, 1, 3.5270, 2, 0.7849, 3.5284,92,30,93,0.7433,0
 17, 1, 236, S1-15.jpg, 1, [181 10 240], purple, 1, 186, 1, 1, 2.6303, 2, 0.7090, 2.6313,92,44,84,0.7368,0
 17, 1, 237, S2-19.jpg, 2, [10 240 94], green, 1, 344, 2, 1, 4.8016, 1, 0.1620, 4.8025,195,71,115,0.7433,0
 17, 1, 238, S1-15.jpg, 1, [181 10 240], purple, 1, 282, 2, 0, 3.9115, 1, 0.1186, 3.9125,91,77,119,0.7368,0
 17, 1, 239, S1-15.jpg, 1, [181 10 240], purple, 1, 189, 1, 1, 2.6499, 1, 0.2644, 2.6506,113,32,78,0.7368,0
 17, 1, 240, S1-15.jpg, 1, [181 10 240], purple, 1, 95, 1, 1, 1.3428, 1, 0.2278, 1.3438,119,27,75,0.7368,0
 17, 1, 241, S1-15.jpg, 1, [181 10 240], purple, 1, 114, 1, 1, 1.6317, 1, 0.1782, 1.6325,86,48,79,0.7368,0
 17, 1, 242, S2-19.jpg, 2, [10 240 94], green, 1, 143, 2, 1, 2.0299, 2, 0.2487, 2.0312,114,46,89,0.7433,0
 17, 1, 243, S2-19.jpg, 2, [240 168 10], orange, NaN, 186, 2, 1, 2.5902, 1, 0.8315, 2.5915,85,43,80,0.7433,0
 17, 1, 244, S1-15.jpg, 1, [181 10 240], purple, 1, 298, 1, 1, 4.1949, 3, 0.0605, 4.1959,81,54,122,0.7368,0
 17, 1, 245, S1-15.jpg, 1, [10 240 94], green, 0, 299, 2, 0, 4.2462, 1, 0.4917, 4.2477,80,37,112,0.7368,0
 17, 1, 246, S1-15.jpg, 1, [181 10 240], purple, 1, 164, 1, 1, 2.3074, 3, 0.0690, 2.3084,100,46,77,0.7368,0
 17, 1, 247, S1-15.jpg, 1, [181 10 240], purple, 1, 251, 1, 1, 3.5504, 1, 0.9052, 3.5511,101,38,105,0.7368,0
 17, 1, 248, S2-19.jpg, 2, [181 10 240], purple, 0, 208, 1, 0, 2.9220, 4, 0.0462, 2.9231,77,50,84,0.7433,0
 17, 1, 249, S2-19.jpg, 2, [10 240 94], green, 1, 127, 2, 1, 1.8071, 3, 0.1911, 1.8081,77,52,83,0.7433,0
 17, 1, 250, S1-15.jpg, 1, [181 10 240], purple, 1, 212, 1, 1, 3.0123, 2, 1.0010, 3.0131,93,29,98,0.7368,0
 17, 1, 251, S1-15.jpg, 1, [181 10 240], purple, 1, 348, 1, 1, 4.8468, 3, 0.0514, 4.8478,91,24,101,0.7368,0
 17, 1, 252, S2-19.jpg, 2, [10 240 94], green, 1, 316, 2, 1, 4.4286, 3, 0.2106, 4.4296,85,42,118,0.7433,0
 17, 1, 253, S2-19.jpg, 2, [240 168 10], orange, NaN, 224, 2, 1, 3.1539, 2, 0.3001, 3.1549,80,26,77,0.7433,0
 17, 1, 254, S2-19.jpg, 2, [240 168 10], orange, NaN, 234, 2, 1, 3.3276, 3, 0.2941, 3.3283,92,32,140,0.7433,0
 17, 1, 255, S2-19.jpg, 2, [10 240 94], green, 1, 184, 2, 1, 2.5996, 3, 0.1645, 2.6004,102,28,98,0.7433,1
 17, 1, 256, S2-19.jpg, 2, [10 240 94], green, 1, 229, 2, 1, 3.2337, 1, 0.0460, 3.2347,99,30,76,0.7433,0
 17, 1, 257, S1-15.jpg, 1, [181 10 240], purple, 1, 135, 1, 1, 1.9367, 4, 0.0002, 1.9375,83,49,76,0.7368,0
 17, 1, 258, S2-19.jpg, 2, [10 240 94], green, 1, 155, 2, 1, 2.2030, 1, 0.1184, 2.2041,102,42,116,0.7433,0
 17, 1, 259, S1-15.jpg, 1, [181 10 240], purple, 1, 183, 1, 1, 2.5755, 3, 0.0337, 2.5765,83,43,97,0.7368,0
 17, 1, 260, S1-15.jpg, 1, [10 240 94], green, 0, 158, 2, 0, 2.2279, 1, 0.2221, 2.2289,76,45,81,0.7368,0
 17, 1, 261, S2-19.jpg, 2, [10 240 94], green, 1, 286, 2, 1, 4.0576, 1, 0.3200, 4.0591,81,23,82,0.7433,0
 17, 1, 262, S2-19.jpg, 2, [10 240 94], green, 1, 241, 2, 1, 3.4108, 1, 0.1245, 3.4117,108,39,118,0.7433,0
 17, 1, 263, S2-19.jpg, 2, [240 168 10], orange, NaN, 167, 2, 1, 2.3280, 1, 0.1496, 2.3289,91,46,78,0.7433,0
 17, 1, 264, S1-15.jpg, 1, [181 10 240], purple, 1, 322, 1, 1, 4.5217, 4, 0.7652, 4.5225,75,38,89,0.7368,0
 17, 1, 265, S1-15.jpg, 1, [10 240 94], green, 0, 119, 2, 0, 1.6942, 4, 0.0628, 1.6952,110,90,104,0.7368,1
 17, 1, 266, S2-19.jpg, 2, [181 10 240], purple, 0, 211, 1, 0, 2.9513, 1, 0.0002, 2.9522,121,60,92,0.7433,0
 17, 1, 267, S2-19.jpg, 2, [10 240 94], green, 1, 238, 2, 1, 3.3669, 1, 0.0002, 3.3676,76,30,97,0.7433,0
 17, 1, 268, S1-15.jpg, 1, [10 240 94], green, 0, 244, 2, 0, 3.4467, 3, 0.0002, 3.4475,78,23,116,0.7368,0
 17, 1, 269, S2-19.jpg, 2, [240 168 10], orange, NaN, 272, 2, 1, 3.8372, 1, 0.4242, 3.8382,99,34,110,0.7433,0
 17, 1, 270, S1-15.jpg, 1, [181 10 240], purple, 1, 321, 1, 1, 4.4812, 2, 0.2926, 4.4819,84,82,195,0.7368,0
 17, 1, 271, S2-19.jpg, 2, [240 168 10], orange, NaN, 366, 1, 0, 5.1322, 1, 1.1243, 5.1331,101,39,87,0.7433,0
 17, 1, 272, S2-19.jpg, 2, [10 240 94], green, 1, 219, 2, 1, 3.0631, 2, 1.3714, 3.0641,125,49,109,0.7433,1
 17, 1, 273, S2-19.jpg, 2, [10 240 94], green, 1, 195, 2, 1, 2.7240, 1, 0.2161, 2.7249,90,27,76,0.7433,0
 17, 1, 274, S2-19.jpg, 2, [10 240 94], green, 1, 143, 2, 1, 2.0277, 1, 0.0038, 2.0285,111,65,96,0.7433,0
 17, 1, 275, S2-19.jpg, 2, [240 168 10], orange, NaN, 420, 1, 0, 5.8548, 2, 0.2489, 5.8557,80,24,130,0.7433,0
 17, 1, 276, S1-15.jpg, 1, [181 10 240], purple, 1, 397, 1, 1, 5.5341, 4, 0.2622, 5.5351,77,28,88,0.7368,0