subID,block,trial,targetImg,targetIdx,cue_rgb,cue_string,congruent,respFrame,response,accuracy,RT,confResp,confRT,flickerDuration,noise1frames,signal1frames,noise2frames,coherence,catch_trial
 13, 1, 1, S3-12.jpg, 1, [240 37 33], red, 1, 326, 1, 1, 4.7061, NaN, NaN, 4.7108,89,25,87,0.7780,0
 13, 1, 2, S4-20.jpg, 2, [10 144 240], blue, 1, 250, 2, 1, 3.6002, 3, 0.8466, 3.6010,91,31,104,0.6979,0
 13, 1, 3, S3-12.jpg, 1, [240 37 33], red, 1, 311, 1, 1, 4.4649, 3, 0.6459, 4.4659,89,27,80,0.7780,1
 13, 1, 4, S4-20.jpg, 2, [10 144 240], blue, 1, 280, 2, 1, 4.0564, 3, 0.4374, 4.0571,139,31,85,0.6979,0
 13, 1, 5, S3-12.jpg, 1, [10 144 240], blue, 0, 277, 2, 0, 4.0226, 4, 1.1324, 4.0234,138,25,81,0.7780,0
 13, 1, 6, S4-20.jpg, 2, [10 144 240], blue, 1, NaN, NaN, 0, NaN, 1, 1.1953, 7.7535,79,33,86,0.6979,0
 13, 1, 7, S3-12.jpg, 1, [10 144 240], blue, 0, 400, 2, 0, 5.7169, 2, 0.8698, 5.7179,96,27,76,0.7780,0
 13, 1, 8, S4-20.jpg, 2, [10 144 240], blue, 1, 435, 2, 1, 6.2036, 3, 1.4348, 6.2045,94,51,88,0.6979,0
 13, 1, 9, S3-12.jpg, 1, [240 239 10], yellow, NaN, NaN, 2, 0, 8.2438, 1, 0.7928, 7.7432,86,58,90,0.7780,1
 13, 1, 10, S3-12.jpg, 1, [240 37 33], red, 1, 431, 2, 0, 6.1623, 2, 2.0516, 6.1631,127,36,113,0.7780,1
 13, 1, 11, S4-20.jpg, 2, [10 144 240], blue, 1, 396, 2, 1, 5.6575, 3, 1.8230, 5.6585,84,62,83,0.6979,0
 13, 1, 12, S4-20.jpg, 2, [10 144 240], blue, 1, 485, 2, 1, 6.9805, 4, 0.9731, 6.9813,77,38,78,0.6979,0
 13, 1, 13, S4-20.jpg, 2, [10 144 240], blue, 1, 417, 2, 1, 5.9911, 4, 2.7357, 5.9922,107,26,90,0.6979,0
 13, 1, 14, S3-12.jpg, 1, [240 37 33], red, 1, 187, 1, 1, 2.6946, 4, 0.8876, 2.6956,104,38,102,0.7780,0
 13, 1, 15, S4-20.jpg, 2, [10 144 240], blue, 1, 524, 2, 1, 7.5332, 3, 0.4236, 7.5339,81,53,77,0.6979,0
 13, 1, 16, S4-20.jpg, 2, [240 239 10], yellow, NaN, 373, 2, 1, 5.3492, 3, 0.8054, 5.3501,95,81,82,0.6979,1
 13, 1, 17, S4-20.jpg, 2, [240 239 10], yellow, NaN, 521, 1, 0, 7.5155, 2, 0.8643, 7.5164,103,31,76,0.6979,1
 13, 1, 18, S4-20.jpg, 2, [10 144 240], blue, 1, 373, 2, 1, 5.3166, 3, 0.3733, 5.3176,103,41,76,0.6979,0
 13, 1, 19, S3-12.jpg, 1, [240 239 10], yellow, NaN, 360, 2, 0, 5.2222, 4, 0.8983, 5.2232,79,24,79,0.7780,0
 13, 1, 20, S3-12.jpg, 1, [240 239 10], yellow, NaN, 458, 1, 1, 6.5494, 2, 0.4693, 6.5505,110,41,89,0.7780,0
 13, 1, 21, S3-12.jpg, 1, [240 239 10], yellow, NaN, 280, 1, 1, 4.0429, 2, 0.3991, 4.0438,82,29,94,0.7780,0
 13, 1, 22, S3-12.jpg, 1, [240 37 33], red, 1, 367, 2, 0, 5.3026, 2, 0.8472, 5.3033,93,26,80,0.7780,0
 13, 1, 23, S3-12.jpg, 1, [240 37 33], red, 1, NaN, NaN, 0, NaN, 1, 0.6715, 7.7800,136,74,93,0.7780,0
 13, 1, 24, S4-20.jpg, 2, [240 37 33], red, 0, NaN, 2, 1, 8.0215, 1, 0.4611, 7.7353,82,53,85,0.6979,0
 13, 1, 25, S3-12.jpg, 1, [240 239 10], yellow, NaN, 332, 2, 0, 4.7453, 3, 0.2715, 4.7464,86,87,102,0.7780,0
 13, 1, 26, S3-12.jpg, 1, [240 239 10], yellow, NaN, 364, 1, 1, 5.2707, 2, 1.6849, 5.2717,76,49,83,0.7780,0
 13, 1, 27, S3-12.jpg, 1, [240 239 10], yellow, NaN, 477, 2, 0, 6.8136, 3, 0.5089, 6.8144,116,35,77,0.7780,0
 13, 1, 28, S3-12.jpg, 1, [240 37 33], red, 1, 488, 1, 1, 7.0569, 3, 0.3361, 7.0577,80,57,82,0.7780,0
 13, 1, 29, S3-12.jpg, 1, [240 37 33], red, 1, 290, 1, 1, 4.2060, 3, 1.6398, 4.2068,99,61,85,0.7780,0
 13, 1, 30, S3-12.jpg, 1, [10 144 240], blue, 0, 517, 2, 0, 7.4031, 3, 1.0339, 7.4042,90,91,86,0.7780,0
 13, 1, 31, S3-12.jpg, 1, [240 37 33], red, 1, 236, 1, 1, 3.4038, 3, 0.4689, 3.4048,128,44,95,0.7780,0
 13, 1, 32, S4-20.jpg, 2, [240 37 33], red, 0, 341, 1, 0, 4.7928, 3, 0.3806, 4.7935,78,143,99,0.6979,0
 13, 1, 33, S4-20.jpg, 2, [10 144 240], blue, 1, 463, 1, 0, 6.6676, 3, 0.4735, 6.6691,95,24,83,0.6979,0
 13, 1, 34, S4-20.jpg, 2, [10 144 240], blue, 1, 516, 2, 1, 7.4160, 3, 1.6442, 7.4170,94,62,85,0.6979,0
 13, 1, 35, S3-12.jpg, 1, [240 37 33], red, 1, 486, 2, 0, 6.9649, 3, 1.7148, 6.9659,87,23,85,0.7780,0
 13, 1, 36, S4-20.jpg, 2, [240 37 33], red, 0, 464, 1, 0, 6.7309, 1, 0.5315, 6.7319,91,27,112,0.6979,0
 13, 1, 37, S3-12.jpg, 1, [240 239 10], yellow, NaN, 359, 2, 0, 5.1789, 3, 0.3018, 5.1799,120,26,89,0.7780,0
 13, 1, 38, S4-20.jpg, 2, [10 144 240], blue, 1, 273, 1, 0, 3.8771, 2, 2.5381, 3.8781,84,33,108,0.6979,0
 13, 1, 39, S3-12.jpg, 1, [240 239 10], yellow, NaN, NaN, NaN, 0, NaN, 1, 0.5020, 7.6966,76,32,102,0.7780,0
 13, 1, 40, S3-12.jpg, 1, [240 37 33], red, 1, 173, 2, 0, 2.5460, 2, 1.8263, 2.5471,78,28,79,0.7780,0
 13, 1, 41, S3-12.jpg, 1, [240 37 33], red, 1, 340, 1, 1, 4.8861, 3, 0.4076, 4.8868,102,37,106,0.7780,0
 13, 1, 42, S3-12.jpg, 1, [240 37 33], red, 1, 206, 1, 1, 2.9446, 3, 0.4012, 2.9457,76,27,94,0.7780,0
 13, 1, 43, S4-20.jpg, 2, [10 144 240], blue, 1, 289, 2, 1, 4.1796, 2, 1.2968, 4.1806,141,54,84,0.6979,0
 13, 1, 44, S3-12.jpg, 1, [240 239 10], yellow, NaN, 363, 1, 1, 5.2273, 3, 1.8460, 5.2281,112,27,96,0.7780,0
 13, 1, 45, S4-20.jpg, 2, [10 144 240], blue, 1, 412, 2, 1, 5.8934, 3, 0.2432, 5.8949,89,40,123,0.6979,0
 13, 1, 46, S4-20.jpg, 2, [10 144 240], blue, 1, 479, 2, 1, 6.9110, 4, 0.5984, 6.9122,82,35,79,0.6979,0
 13, 1, 47, S3-12.jpg, 1, [240 37 33], red, 1, 488, 1, 1, 6.9810, 3, 2.4363, 6.9819,75,28,103,0.7780,0
 13, 1, 48, S4-20.jpg, 2, [10 144 240], blue, 1, 379, 1, 0, 5.4090, 2, 1.1217, 5.4100,76,30,80,0.6979,0
 13, 1, 49, S3-12.jpg, 1, [240 239 10], yellow, NaN, 356, 2, 0, 5.0847, 3, 0.8952, 5.0856,106,64,100,0.7780,0
 13, 1, 50, S3-12.jpg, 1, [10 144 240], blue, 0, 366, 2, 0, 5.2721, 3, 0.8276, 5.2728,81,31,78,0.7780,0
 13, 1, 51, S3-12.jpg, 1, [240 37 33], red, 1, 136, 1, 1, 1.9707, 3, 2.1071, 1.9722,116,36,97,0.7780,0
 13, 1, 52, S3-12.jpg, 1, [10 144 240], blue, 0, 406, 2, 0, 5.8181, NaN, NaN, 5.8191,105,29,134,0.7780,0
 13, 1, 53, S3-12.jpg, 1, [240 239 10], yellow, NaN, 281, 1, 1, 4.1400, 3, 1.7499, 4.1409,81,55,108,0.7780,0
 13, 1, 54, S3-12.jpg, 1, [240 239 10], yellow, NaN, NaN, NaN, 0, NaN, 1, 1.8312, 7.7478,86,35,95,0.7780,0
 13, 1, 55, S4-20.jpg, 2, [10 144 240], blue, 1, 75, 1, 0, 1.1113, 2, 2.5016, 1.1123,90,43,80,0.6979,0
 13, 1, 56, S3-12.jpg, 1, [240 239 10], yellow, NaN, 164, 2, 0, 2.3980, 3, 1.4104, 2.3994,84,25,120,0.7780,0
 13, 1, 57, S4-20.jpg, 2, [10 144 240], blue, 1, 340, 1, 0, 4.9002, NaN, NaN, 4.9012,76,24,78,0.6979,1
 13, 1, 58, S4-20.jpg, 2, [240 37 33], red, 0, 380, 2, 1, 5.4592, 3, 1.3333, 5.4601,78,56,86,0.6979,0
 13, 1, 59, S4-20.jpg, 2, [10 144 240], blue, 1, 396, 2, 1, 5.7192, 3, 0.7553, 5.7202,83,33,97,0.6979,0
 13, 1, 60, S3-12.jpg, 1, [240 239 10], yellow, NaN, 361, 1, 1, 5.2231, 2, 1.4642, 5.2239,118,30,93,0.7780,0
 13, 1, 61, S3-12.jpg, 1, [240 37 33], red, 1, 143, 1, 1, 2.1135, 3, 0.3617, 2.1143,82,37,84,0.7780,0
 13, 1, 62, S3-12.jpg, 1, [10 144 240], blue, 0, 139, 2, 0, 2.0452, 3, 1.1467, 2.0459,106,48,77,0.7780,0
 13, 1, 63, S3-12.jpg, 1, [240 37 33], red, 1, 71, 1, 1, 1.0644, 3, 0.2951, 1.0653,80,23,128,0.7780,0
 13, 1, 64, S3-12.jpg, 1, [240 37 33], red, 1, 92, 1, 1, 1.3634, 3, 0.2777, 1.3649,79,47,91,0.7780,0
 13, 1, 65, S3-12.jpg, 1, [240 37 33], red, 1, 211, 1, 1, 3.0906, 4, 0.6870, 3.0914,109,45,91,0.7780,0
 13, 1, 66, S3-12.jpg, 1, [240 37 33], red, 1, 189, 2, 0, 2.7331, 2, 0.8753, 2.7339,80,39,77,0.7780,0
 13, 1, 67, S4-20.jpg, 2, [10 144 240], blue, 1, 140, 2, 1, 2.0656, 3, 0.6877, 2.0671,118,30,83,0.6979,0
 13, 1, 68, S4-20.jpg, 2, [240 239 10], yellow, NaN, 296, 2, 1, 4.2786, 3, 0.7539, 4.2794,85,28,91,0.6979,1
 13, 1, 69, S4-20.jpg, 2, [10 144 240], blue, 1, 346, 2, 1, 4.9851, 2, 1.2892, 4.9858,78,28,80,0.6979,0
 13, 1, 70, S4-20.jpg, 2, [10 144 240], blue, 1, 350, 2, 1, 5.0373, 3, 0.8223, 5.0380,113,61,87,0.6979,0
 13, 1, 71, S3-12.jpg, 1, [10 144 240], blue, 0, 294, 1, 1, 4.2551, 2, 2.0539, 4.2563,114,25,79,0.7780,0
 13, 1, 72, S3-12.jpg, 1, [240 239 10], yellow, NaN, 509, 2, 0, 7.3088, 4, 1.9774, 7.3099,100,44,117,0.7780,0
 13, 1, 73, S4-20.jpg, 2, [10 144 240], blue, 1, 475, 2, 1, 6.9125, 2, 1.3788, 6.9133,96,75,82,0.6979,0
 13, 1, 74, S4-20.jpg, 2, [10 144 240], blue, 1, 315, 2, 1, 4.5186, 4, 2.2904, 4.5194,106,25,87,0.6979,0
 13, 1, 75, S4-20.jpg, 2, [10 144 240], blue, 1, 213, 1, 0, 3.0642, 3, 1.3057, 3.0653,131,88,76,0.6979,0
 13, 1, 76, S3-12.jpg, 1, [240 37 33], red, 1, 186, 1, 1, 2.7627, 3, 0.4677, 2.7642,87,34,89,0.7780,0
 13, 1, 77, S3-12.jpg, 1, [240 239 10], yellow, NaN, 206, 2, 0, 2.9819, 3, 0.7678, 2.9829,101,47,86,0.7780,0
 13, 1, 78, S4-20.jpg, 2, [10 144 240], blue, 1, 493, 2, 1, 7.1098, 2, 1.3417, 7.1108,93,25,81,0.6979,0
 13, 1, 79, S3-12.jpg, 1, [240 239 10], yellow, NaN, 141, 1, 1, 2.0766, 4, 1.7007, 2.0781,107,36,90,0.7780,0
 13, 1, 80, S4-20.jpg, 2, [240 37 33], red, 0, 481, 2, 1, 6.9157, 3, 1.2455, 6.9165,102,31,125,0.6979,1
 13, 1, 81, S3-12.jpg, 1, [240 37 33], red, 1, 128, 1, 1, 1.8692, 3, 0.6945, 1.8699,94,40,95,0.7780,0
 13, 1, 82, S4-20.jpg, 2, [10 144 240], blue, 1, 441, 2, 1, 6.4316, 3, 1.0785, 6.4326,80,41,79,0.6979,0
 13, 1, 83, S4-20.jpg, 2, [10 144 240], blue, 1, 334, 2, 1, 4.8117, 3, 0.2043, 4.8125,78,26,131,0.6979,1
 13, 1, 84, S3-12.jpg, 1, [10 144 240], blue, 0, 310, 1, 1, 4.4731, 2, 0.3691, 4.4740,195,35,108,0.7780,0
 13, 1, 85, S4-20.jpg, 2, [10 144 240], blue, 1, 478, 2, 1, 6.8796, NaN, NaN, 6.8811,83,45,77,0.6979,0
 13, 1, 86, S3-12.jpg, 1, [240 37 33], red, 1, 180, 1, 1, 2.5956, 2, 0.3821, 2.5964,115,57,88,0.7780,0
 13, 1, 87, S4-20.jpg, 2, [10 144 240], blue, 1, 366, 2, 1, 5.2884, 3, 0.7416, 5.2896,77,32,133,0.6979,0
 13, 1, 88, S3-12.jpg, 1, [240 37 33], red, 1, 249, 1, 1, 3.6350, 3, 1.0850, 3.6358,79,35,136,0.7780,0
 13, 1, 89, S3-12.jpg, 1, [240 239 10], yellow, NaN, 287, 1, 1, 4.1362, 2, 1.3400, 4.1370,86,23,105,0.7780,0
 13, 1, 90, S3-12.jpg, 1, [240 37 33], red, 1, 221, 1, 1, 3.1909, 3, 0.9104, 3.1920,130,26,90,0.7780,0
 13, 1, 91, S3-12.jpg, 1, [240 37 33], red, 1, 88, 1, 1, 1.3082, 3, 0.2209, 1.3090,93,28,94,0.7780,0
 13, 1, 92, S3-12.jpg, 1, [10 144 240], blue, 0, 118, 2, 0, 1.7480, 3, 0.8757, 1.7490,84,63,75,0.7780,1
 13, 1, 93, S3-12.jpg, 1, [240 37 33], red, 1, 110, 1, 1, 1.6337, 3, 0.2128, 1.6344,86,33,142,0.7780,0
 13, 1, 94, S3-12.jpg, 1, [10 144 240], blue, 0, 172, 2, 0, 2.5811, 3, 0.3290, 2.5820,81,40,87,0.7780,1
 13, 1, 95, S3-12.jpg, 1, [10 144 240], blue, 0, 228, 1, 1, 3.3194, 3, 0.8428, 3.3203,78,40,93,0.7780,0
 13, 1, 96, S3-12.jpg, 1, [240 37 33], red, 1, 449, 1, 1, 6.4292, 3, 0.8537, 6.4303,82,64,78,0.7780,0
 13, 1, 97, S3-12.jpg, 1, [10 144 240], blue, 0, 414, 2, 0, 5.9658, 3, 0.9576, 5.9668,107,24,92,0.7780,0
 13, 1, 98, S3-12.jpg, 1, [240 239 10], yellow, NaN, 189, 1, 1, 2.7405, 3, 1.7250, 2.7413,99,39,83,0.7780,0
 13, 1, 99, S4-20.jpg, 2, [10 144 240], blue, 1, 140, 2, 1, 2.0169, 3, 0.7318, 2.0179,78,25,103,0.6979,1
 13, 1, 100, S4-20.jpg, 2, [10 144 240], blue, 1, 124, 1, 0, 1.8202, 2, 0.9942, 1.8212,81,32,100,0.6979,0
 13, 1, 101, S3-12.jpg, 1, [10 144 240], blue, 0, 244, 1, 1, 3.5166, 3, 0.3190, 3.5174,85,32,78,0.7780,0
 13, 1, 102, S4-20.jpg, 2, [10 144 240], blue, 1, 206, 2, 1, 3.0577, 3, 0.4382, 3.0592,108,68,80,0.6979,0
 13, 1, 103, S4-20.jpg, 2, [240 37 33], red, 0, 370, 2, 1, 5.3390, 3, 1.7896, 5.3400,80,39,127,0.6979,0
 13, 1, 104, S4-20.jpg, 2, [10 144 240], blue, 1, 396, 2, 1, 5.6334, 3, 0.7978, 5.6349,95,50,83,0.6979,0
 13, 1, 105, S3-12.jpg, 1, [10 144 240], blue, 0, 424, 1, 1, 6.0769, 2, 1.4271, 6.0779,79,59,90,0.7780,0
 13, 1, 106, S3-12.jpg, 1, [240 37 33], red, 1, 88, 1, 1, 1.3174, 4, 0.6423, 1.3184,76,28,124,0.7780,0
 13, 1, 107, S4-20.jpg, 2, [10 144 240], blue, 1, 155, 1, 0, 2.2428, 4, 0.6967, 2.2435,87,52,115,0.6979,0
 13, 1, 108, S3-12.jpg, 1, [240 239 10], yellow, NaN, 527, 2, 0, 7.5754, NaN, NaN, 7.5764,110,34,77,0.7780,0
 13, 1, 109, S4-20.jpg, 2, [10 144 240], blue, 1, 112, 1, 0, 1.6468, 2, 2.0173, 1.6477,85,53,79,0.6979,0
 13, 1, 110, S3-12.jpg, 1, [240 37 33], red, 1, 136, 1, 1, 1.9482, 3, 0.6457, 1.9498,142,40,94,0.7780,0
 13, 1, 111, S4-20.jpg, 2, [10 144 240], blue, 1, 168, 2, 1, 2.3881, 3, 0.5672, 2.3891,87,56,98,0.6979,0
 13, 1, 112, S4-20.jpg, 2, [10 144 240], blue, 1, 149, 1, 0, 2.1747, 2, 1.0535, 2.1757,123,72,99,0.6979,0
 13, 1, 113, S3-12.jpg, 1, [240 239 10], yellow, NaN, 323, 2, 0, 4.6880, 3, 2.4855, 4.6887,83,29,98,0.7780,0
 13, 1, 114, S4-20.jpg, 2, [240 37 33], red, 0, 79, 1, 0, 1.1867, 3, 1.3835, 1.1876,94,33,82,0.6979,0
 13, 1, 115, S3-12.jpg, 1, [240 37 33], red, 1, 95, 1, 1, 1.3949, 3, 1.3688, 1.3959,92,65,76,0.7780,0
 13, 1, 116, S3-12.jpg, 1, [240 37 33], red, 1, 90, 1, 1, 1.3554, 3, 0.2045, 1.3564,100,55,77,0.7780,0
 13, 1, 117, S3-12.jpg, 1, [240 37 33], red, 1, 79, 1, 1, 1.1881, 3, 0.4483, 1.1889,89,29,87,0.7780,0
 13, 1, 118, S3-12.jpg, 1, [240 37 33], red, 1, 55, 1, 1, 0.8283, 3, 0.1857, 0.8295,77,24,91,0.7780,0
 13, 1, 119, S4-20.jpg, 2, [240 37 33], red, 0, 60, 1, 0, 0.9201, 3, 0.2106, 0.9210,140,42,88,0.6979,0
 13, 1, 120, S4-20.jpg, 2, [10 144 240], blue, 1, 87, 1, 0, 1.2789, 3, 0.1981, 1.2796,84,76,113,0.6979,0
 13, 1, 121, S3-12.jpg, 1, [240 37 33], red, 1, 149, 1, 1, 2.1812, 4, 0.7559, 2.1827,81,24,91,0.7780,0
 13, 1, 122, S3-12.jpg, 1, [240 239 10], yellow, NaN, 196, 2, 0, 2.7973, 3, 0.7258, 2.7983,100,43,100,0.7780,0
 13, 1, 123, S3-12.jpg, 1, [10 144 240], blue, 0, 87, 2, 0, 1.2794, 3, 0.3290, 1.2803,96,38,132,0.7780,0
 13, 1, 124, S3-12.jpg, 1, [10 144 240], blue, 0, 82, 2, 0, 1.2399, 3, 0.2769, 1.2407,120,66,99,0.7780,0
 13, 1, 125, S4-20.jpg, 2, [10 144 240], blue, 1, 91, 1, 0, 1.3300, 2, 1.2592, 1.3307,119,29,81,0.6979,1
 13, 1, 126, S4-20.jpg, 2, [10 144 240], blue, 1, 169, 1, 0, 2.4534, 3, 0.0483, 2.4542,82,25,143,0.6979,0
 13, 1, 127, S3-12.jpg, 1, [10 144 240], blue, 0, 102, 1, 1, 1.4945, 2, 1.5100, 1.4953,76,30,78,0.7780,0
 13, 1, 128, S3-12.jpg, 1, [240 37 33], red, 1, 323, 2, 0, 4.6309, 4, 1.2544, 4.6317,79,32,87,0.7780,0
 13, 1, 129, S4-20.jpg, 2, [240 37 33], red, 0, 372, 2, 1, 5.3635, NaN, NaN, 5.3650,96,73,88,0.6979,0
 13, 1, 130, S4-20.jpg, 2, [10 144 240], blue, 1, 146, 2, 1, 2.0738, 3, 0.8773, 2.0752,81,35,120,0.6979,0
 13, 1, 131, S3-12.jpg, 1, [240 37 33], red, 1, 64, 1, 1, 0.9342, 3, 0.8016, 0.9352,108,35,138,0.7780,0
 13, 1, 132, S3-12.jpg, 1, [240 239 10], yellow, NaN, 159, 1, 1, 2.3011, 2, 0.8401, 2.3021,88,67,95,0.7780,0
 13, 1, 133, S3-12.jpg, 1, [240 37 33], red, 1, 230, 2, 0, 3.5029, 3, 0.2799, 3.5036,77,36,110,0.7780,0
 13, 1, 134, S4-20.jpg, 2, [10 144 240], blue, 1, 174, 2, 1, 2.5252, 3, 1.1344, 2.5260,87,37,85,0.6979,0
 13, 1, 135, S3-12.jpg, 1, [240 37 33], red, 1, 103, 1, 1, 1.4853, 3, 0.5249, 1.4861,109,40,101,0.7780,0
 13, 1, 136, S3-12.jpg, 1, [240 37 33], red, 1, 111, 2, 0, 1.6294, 3, 2.6198, 1.6304,76,28,82,0.7780,0
 13, 1, 137, S4-20.jpg, 2, [240 37 33], red, 0, 336, 2, 1, 4.8134, 3, 0.0626, 4.8144,77,57,114,0.6979,0
 13, 1, 138, S4-20.jpg, 2, [10 144 240], blue, 1, 246, 2, 1, 3.5588, 2, 1.1894, 3.5596,78,37,80,0.6979,0
 13, 1, 139, S4-20.jpg, 2, [10 144 240], blue, 1, 99, 1, 0, 1.4697, 1, 0.6708, 1.4706,82,80,92,0.6979,0
 13, 1, 140, S3-12.jpg, 1, [240 239 10], yellow, NaN, 153, 2, 0, 2.2340, 2, 1.1822, 2.2349,129,56,83,0.7780,0
 13, 1, 141, S3-12.jpg, 1, [240 239 10], yellow, NaN, 164, 2, 0, 2.4100, 4, 0.7435, 2.4111,93,42,139,0.7780,0
 13, 1, 142, S4-20.jpg, 2, [240 37 33], red, 0, 182, 1, 0, 2.5977, 4, 0.3208, 2.5985,77,25,84,0.6979,0
 13, 1, 143, S4-20.jpg, 2, [10 144 240], blue, 1, 189, 1, 0, 2.7498, 4, 0.6426, 2.7513,86,31,77,0.6979,0
 13, 1, 144, S4-20.jpg, 2, [240 239 10], yellow, NaN, 159, 2, 1, 2.3210, 4, 0.3830, 2.3220,75,30,96,0.6979,0
 13, 1, 145, S4-20.jpg, 2, [10 144 240], blue, 1, 195, 1, 0, 2.8064, 4, 1.0885, 2.8073,81,143,141,0.6979,0
 13, 1, 146, S4-20.jpg, 2, [10 144 240], blue, 1, 170, 2, 1, 2.4764, 3, 0.7409, 2.4771,112,58,95,0.6979,0
 13, 1, 147, S3-12.jpg, 1, [240 37 33], red, 1, 259, 1, 1, 3.7338, 3, 0.7110, 3.7346,75,25,135,0.7780,0
 13, 1, 148, S4-20.jpg, 2, [10 144 240], blue, 1, 338, 2, 1, 4.8681, 3, 0.6008, 4.8688,87,28,78,0.6979,0
 13, 1, 149, S4-20.jpg, 2, [240 239 10], yellow, NaN, NaN, 2, 1, 8.0263, 3, 1.0282, 7.7969,93,29,101,0.6979,0
 13, 1, 150, S3-12.jpg, 1, [240 37 33], red, 1, 243, 2, 0, 3.5091, 3, 0.5849, 3.5100,77,51,81,0.7780,0
 13, 1, 151, S3-12.jpg, 1, [240 37 33], red, 1, 97, 1, 1, 1.4620, 2, 0.2768, 1.4627,77,26,84,0.7780,0
 13, 1, 152, S3-12.jpg, 1, [240 37 33], red, 1, 56, 1, 1, 0.8224, 4, 0.2673, 0.8234,117,25,97,0.7780,0
 13, 1, 153, S3-12.jpg, 1, [240 37 33], red, 1, 79, 1, 1, 1.1939, 4, 0.2576, 1.1949,76,50,86,0.7780,0
 13, 1, 154, S3-12.jpg, 1, [240 37 33], red, 1, 90, 1, 1, 1.3081, 4, 0.4852, 1.3091,77,68,106,0.7780,0
 13, 1, 155, S3-12.jpg, 1, [240 37 33], red, 1, 190, 2, 0, 2.7624, 2, 0.2654, 2.7643,97,42,103,0.7780,0
 13, 1, 156, S3-12.jpg, 1, [240 37 33], red, 1, 64, 1, 1, 0.9825, 2, 0.3414, 0.9833,104,67,77,0.7780,0
 13, 1, 157, S3-12.jpg, 1, [240 37 33], red, 1, 173, 2, 0, 2.5730, 3, 0.2225, 2.5744,78,43,79,0.7780,0
 13, 1, 158, S4-20.jpg, 2, [10 144 240], blue, 1, 150, 2, 1, 2.1988, 4, 0.2881, 2.2003,98,33,111,0.6979,0
 13, 1, 159, S3-12.jpg, 1, [240 37 33], red, 1, 263, 2, 0, 3.8485, 3, 0.8072, 3.8494,88,29,78,0.7780,0
 13, 1, 160, S3-12.jpg, 1, [240 37 33], red, 1, 77, 1, 1, 1.1424, 3, 0.8162, 1.1434,90,55,107,0.7780,1
 13, 1, 161, S4-20.jpg, 2, [10 144 240], blue, 1, 132, 2, 1, 1.9407, 3, 0.6206, 1.9414,104,26,75,0.6979,0
 13, 1, 162, S3-12.jpg, 1, [240 37 33], red, 1, 106, 1, 1, 1.5729, 2, 0.9659, 1.5745,82,69,100,0.7780,0
 13, 1, 163, S4-20.jpg, 2, [10 144 240], blue, 1, 241, 2, 1, 3.5365, 3, 0.2237, 3.5373,75,60,99,0.6979,0
 13, 1, 164, S4-20.jpg, 2, [240 239 10], yellow, NaN, 246, 1, 0, 3.5568, 3, 0.6872, 3.5578,79,32,79,0.6979,0
 13, 1, 165, S4-20.jpg, 2, [240 239 10], yellow, NaN, 114, 1, 0, 1.6654, 1, 2.5444, 1.6664,133,34,105,0.6979,0
 13, 1, 166, S3-12.jpg, 1, [240 37 33], red, 1, 262, 2, 0, 3.8241, 3, 2.0293, 3.8248,88,23,89,0.7780,0
 13, 1, 167, S3-12.jpg, 1, [240 37 33], red, 1, 98, 1, 1, 1.4180, 2, 1.3693, 1.4189,79,86,107,0.7780,1
 13, 1, 168, S4-20.jpg, 2, [240 239 10], yellow, NaN, 231, 1, 0, 3.3147, 4, 0.5823, 3.3157,77,29,81,0.6979,0
 13, 1, 169, S4-20.jpg, 2, [240 37 33], red, 0, 372, 2, 1, 5.3275, 2, 0.9365, 5.3284,78,78,81,0.6979,0
 13, 1, 170, S4-20.jpg, 2, [10 144 240], blue, 1, 199, 1, 0, 2.8746, 3, 1.2477, 2.8755,117,48,75,0.6979,0
 13, 1, 171, S4-20.jpg, 2, [10 144 240], blue, 1, 391, 1, 0, 5.6721, 3, 1.3337, 5.6728,76,54,126,0.6979,0
 13, 1, 172, S3-12.jpg, 1, [240 37 33], red, 1, 114, 1, 1, 1.6847, 3, 0.3880, 1.6857,98,34,90,0.7780,0
 13, 1, 173, S4-20.jpg, 2, [240 239 10], yellow, NaN, 98, 2, 1, 1.4882, 3, 0.4856, 1.4890,137,44,103,0.6979,0
 13, 1, 174, S3-12.jpg, 1, [240 239 10], yellow, NaN, 138, 2, 0, 1.9877, 3, 0.2303, 1.9887,97,34,94,0.7780,1
 13, 1, 175, S4-20.jpg, 2, [240 239 10], yellow, NaN, 253, 2, 1, 3.6743, 3, 0.3419, 3.6753,86,27,75,0.6979,0
 13, 1, 176, S4-20.jpg, 2, [240 239 10], yellow, NaN, 389, 1, 0, 5.6133, 3, 1.0403, 5.6144,82,26,117,0.6979,0
 13, 1, 177, S4-20.jpg, 2, [10 144 240], blue, 1, 113, 2, 1, 1.7023, 3, 0.3749, 1.7033,87,38,84,0.6979,0
 13, 1, 178, S3-12.jpg, 1, [240 37 33], red, 1, 330, 2, 0, 4.8030, 3, 0.8547, 4.8038,79,48,101,0.7780,0
 13, 1, 179, S4-20.jpg, 2, [240 37 33], red, 0, 347, 2, 1, 4.9909, 2, 1.9476, 4.9920,90,31,80,0.6979,0
 13, 1, 180, S4-20.jpg, 2, [10 144 240], blue, 1, 178, 2, 1, 2.5992, 3, 0.4733, 2.6002,134,37,102,0.6979,1
 13, 1, 181, S4-20.jpg, 2, [240 239 10], yellow, NaN, 136, 2, 1, 1.9624, 4, 0.2023, 1.9634,84,26,107,0.6979,0
 13, 1, 182, S4-20.jpg, 2, [240 37 33], red, 0, 196, 1, 0, 2.8326, 4, 0.1858, 2.8334,96,37,129,0.6979,0
 13, 1, 183, S4-20.jpg, 2, [10 144 240], blue, 1, 131, 2, 1, 1.9438, 4, 0.7172, 1.9447,80,36,79,0.6979,0
 13, 1, 184, S3-12.jpg, 1, [240 37 33], red, 1, 204, 1, 1, 2.9426, 3, 0.9940, 2.9436,105,47,90,0.7780,0
 13, 1, 185, S3-12.jpg, 1, [240 37 33], red, 1, 321, 2, 0, 4.6389, 3, 1.9160, 4.6400,84,35,82,0.7780,0
 13, 1, 186, S4-20.jpg, 2, [10 144 240], blue, 1, 280, 1, 0, 4.0351, NaN, NaN, 4.0361,89,59,96,0.6979,0
 13, 1, 187, S3-12.jpg, 1, [240 37 33], red, 1, 117, 1, 1, 1.7936, 3, 0.4616, 1.7944,95,89,91,0.7780,0
 13, 1, 188, S3-12.jpg, 1, [240 37 33], red, 1, 138, 1, 1, 1.9630, 2, 1.1968, 1.9645,90,31,84,0.7780,0
 13, 1, 189, S3-12.jpg, 1, [240 37 33], red, 1, 116, 1, 1, 1.6871, 2, 0.6488, 1.6881,91,28,86,0.7780,0
 13, 1, 190, S4-20.jpg, 2, [240 239 10], yellow, NaN, 222, 2, 1, 3.1829, NaN, NaN, 3.1840,98,79,111,0.6979,0
 13, 1, 191, S4-20.jpg, 2, [240 37 33], red, 0, 483, 1, 0, 6.9653, 2, 1.4303, 6.9668,75,34,79,0.6979,0
 13, 1, 192, S3-12.jpg, 1, [240 37 33], red, 1, 160, 1, 1, 2.3081, 3, 0.3258, 2.3091,80,47,104,0.7780,0
 13, 1, 193, S3-12.jpg, 1, [10 144 240], blue, 0, 103, 2, 0, 1.5883, 3, 0.2096, 1.5891,126,26,81,0.7780,0
 13, 1, 194, S3-12.jpg, 1, [240 37 33], red, 1, 146, 1, 1, 2.0930, 4, 0.7595, 2.0940,85,24,89,0.7780,0
 13, 1, 195, S3-12.jpg, 1, [240 37 33], red, 1, 65, 1, 1, 0.9393, 4, 0.5184, 0.9400,132,50,76,0.7780,1
 13, 1, 196, S4-20.jpg, 2, [10 144 240], blue, 1, 300, 1, 0, 4.3507, 1, 1.5523, 4.3518,105,33,81,0.6979,0
 13, 1, 197, S4-20.jpg, 2, [240 37 33], red, 0, 236, 1, 0, 3.3981, 2, 1.5389, 3.3991,88,34,87,0.6979,0
 13, 1, 198, S4-20.jpg, 2, [10 144 240], blue, 1, 136, 2, 1, 2.0272, 3, 0.4818, 2.0281,143,31,109,0.6979,0
 13, 1, 199, S4-20.jpg, 2, [240 37 33], red, 0, 91, 1, 0, 1.3369, 2, 0.8270, 1.3380,85,26,83,0.6979,0
 13, 1, 200, S4-20.jpg, 2, [240 239 10], yellow, NaN, 526, 1, 0, 7.5547, 2, 1.0673, 7.5558,98,84,76,0.6979,0
 13, 1, 201, S4-20.jpg, 2, [10 144 240], blue, 1, 116, 2, 1, 1.7138, 3, 0.5251, 1.7146,109,25,92,0.6979,0
 13, 1, 202, S4-20.jpg, 2, [240 239 10], yellow, NaN, 118, 2, 1, 1.7462, 3, 0.5231, 1.7475,103,27,77,0.6979,0
 13, 1, 203, S3-12.jpg, 1, [240 37 33], red, 1, 174, 1, 1, 2.4677, 3, 0.8399, 2.4686,89,44,75,0.7780,0
 13, 1, 204, S4-20.jpg, 2, [10 144 240], blue, 1, NaN, NaN, 0, NaN, NaN, NaN, 7.7922,115,58,78,0.6979,0
 13, 1, 205, S4-20.jpg, 2, [240 239 10], yellow, NaN, 136, 2, 1, 1.9665, 3, 0.5407, 1.9675,103,49,82,0.6979,0
 13, 1, 206, S4-20.jpg, 2, [240 239 10], yellow, NaN, 113, 2, 1, 1.6920, 3, 0.2379, 1.6927,92,63,85,0.6979,0
 13, 1, 207, S4-20.jpg, 2, [10 144 240], blue, 1, 203, 2, 1, 2.9580, 3, 1.7279, 2.9591,87,51,86,0.6979,0
 13, 1, 208, S4-20.jpg, 2, [10 144 240], blue, 1, 180, 1, 0, 2.6343, 3, 0.5327, 2.6351,94,27,80,0.6979,0
 13, 1, 209, S4-20.jpg, 2, [10 144 240], blue, 1, 81, 1, 0, 1.2346, 3, 0.1678, 1.2355,83,83,114,0.6979,0
 13, 1, 210, S4-20.jpg, 2, [10 144 240], blue, 1, 76, 1, 0, 1.1481, 3, 0.2757, 1.1492,95,85,82,0.6979,0
 13, 1, 211, S3-12.jpg, 1, [240 239 10], yellow, NaN, 139, 2, 0, 2.0258, 2, 2.6692, 2.0266,80,41,85,0.7780,1
 13, 1, 212, S3-12.jpg, 1, [240 37 33], red, 1, 280, 1, 1, 4.0280, 3, 2.6855, 4.0291,89,29,84,0.7780,0
 13, 1, 213, S4-20.jpg, 2, [10 144 240], blue, 1, 381, 2, 1, 5.5700, 4, 1.3012, 5.5710,79,27,195,0.6979,0
 13, 1, 214, S4-20.jpg, 2, [240 37 33], red, 0, 87, 1, 0, 1.2966, 2, 1.3352, 1.2976,90,70,92,0.6979,0
 13, 1, 215, S4-20.jpg, 2, [10 144 240], blue, 1, 270, 1, 0, 3.9338, 2, 0.8813, 3.9349,79,30,106,0.6979,0
 13, 1, 216, S4-20.jpg, 2, [10 144 240], blue, 1, 116, 2, 1, 1.6447, 3, 0.4054, 1.6454,82,24,77,0.6979,0
 13, 1, 217, S4-20.jpg, 2, [10 144 240], blue, 1, 56, 2, 1, 0.8340, 3, 0.2728, 0.8351,78,33,81,0.6979,0
 13, 1, 218, S4-20.jpg, 2, [240 239 10], yellow, NaN, 115, 2, 1, 1.7208, 3, 0.5245, 1.7216,88,36,88,0.6979,0
 13, 1, 219, S3-12.jpg, 1, [10 144 240], blue, 0, 58, 1, 1, 0.8626, 2, 0.4508, 0.8641,83,41,93,0.7780,0
 13, 1, 220, S4-20.jpg, 2, [240 239 10], yellow, NaN, 68, 1, 0, 0.9566, 2, 0.3320, 0.9573,97,52,137,0.6979,0
 13, 1, 221, S4-20.jpg, 2, [10 144 240], blue, 1, 109, 2, 1, 1.5894, 4, 0.4640, 1.5904,92,24,119,0.6979,1
 13, 1, 222, S4-20.jpg, 2, [10 144 240], blue, 1, 72, 2, 1, 1.0768, 4, 0.2221, 1.0783,83,30,109,0.6979,0
 13, 1, 223, S4-20.jpg, 2, [10 144 240], blue, 1, 70, 2, 1, 1.0618, 4, 0.4100, 1.0625,85,24,76,0.6979,0
 13, 1, 224, S4-20.jpg, 2, [240 239 10], yellow, NaN, 145, 1, 0, 2.0790, 3, 0.7313, 2.0799,135,32,88,0.6979,0
 13, 1, 225, S4-20.jpg, 2, [10 144 240], blue, 1, 241, 1, 0, 3.4991, 3, 0.6159, 3.4998,111,45,96,0.6979,0
 13, 1, 226, S3-12.jpg, 1, [240 37 33], red, 1, 74, 1, 1, 1.1235, 4, 0.2730, 1.1243,83,66,80,0.7780,0
 13, 1, 227, S4-20.jpg, 2, [240 239 10], yellow, NaN, 46, 1, 0, 0.6971, 3, 0.6763, 0.6981,122,38,86,0.6979,0
 13, 1, 228, S4-20.jpg, 2, [240 37 33], red, 0, 62, 1, 0, 0.9288, 3, 0.6558, 0.9299,88,36,121,0.6979,1
 13, 1, 229, S3-12.jpg, 1, [240 37 33], red, 1, 45, 1, 1, 0.6939, 4, 0.3532, 0.6950,84,25,82,0.7780,0
 13, 1, 230, S3-12.jpg, 1, [240 37 33], red, 1, 43, 1, 1, 0.6522, 4, 0.1997, 0.6531,97,46,93,0.7780,0
 13, 1, 231, S3-12.jpg, 1, [240 37 33], red, 1, 34, 1, 1, 0.4732, 4, 0.1922, 0.4743,97,51,92,0.7780,0
 13, 1, 232, S4-20.jpg, 2, [240 37 33], red, 0, 31, 1, 0, 0.4299, 4, 0.2141, 0.4314,101,41,76,0.6979,0
 13, 1, 233, S4-20.jpg, 2, [10 144 240], blue, 1, 342, 1, 0, 4.9952, 4, 0.5549, 4.9962,124,45,110,0.6979,0
 13, 1, 234, S3-12.jpg, 1, [240 37 33], red, 1, 155, 2, 0, 2.2788, 4, 0.8877, 2.2797,88,39,78,0.7780,0
 13, 1, 235, S3-12.jpg, 1, [240 37 33], red, 1, 200, 1, 1, 2.9042, 2, 0.2973, 2.9050,92,30,93,0.7780,1
 13, 1, 236, S4-20.jpg, 2, [10 144 240], blue, 1, 152, 2, 1, 2.2300, 3, 0.2963, 2.2309,92,44,84,0.6979,0
 13, 1, 237, S3-12.jpg, 1, [240 37 33], red, 1, 142, 1, 1, 2.1080, 3, 0.2523, 2.1091,195,71,115,0.7780,0
 13, 1, 238, S3-12.jpg, 1, [240 37 33], red, 1, 338, 2, 0, 4.9033, 4, 2.9663, 4.9049,91,77,119,0.7780,0
 13, 1, 239, S3-12.jpg, 1, [240 37 33], red, 1, 153, 1, 1, 2.2083, 3, 1.0644, 2.2093,113,32,78,0.7780,0
 13, 1, 240, S3-12.jpg, 1, [240 37 33], red, 1, 87, 1, 1, 1.3008, 3, 0.2774, 1.3016,119,27,75,0.7780,0
 13, 1, 241, S4-20.jpg, 2, [10 144 240], blue, 1, 168, 2, 1, 2.4600, 3, 0.2198, 2.4614,86,48,79,0.6979,0
 13, 1, 242, S4-20.jpg, 2, [240 239 10], yellow, NaN, 168, 2, 1, 2.4937, 4, 0.0133, 2.4944,114,46,89,0.6979,0
 13, 1, 243, S3-12.jpg, 1, [240 37 33], red, 1, 97, 1, 1, 1.4213, 4, 0.2037, 1.4223,85,43,80,0.7780,0
 13, 1, 244, S3-12.jpg, 1, [10 144 240], blue, 0, 187, 1, 1, 2.7352, 4, 0.3462, 2.7363,81,54,122,0.7780,0
 13, 1, 245, S3-12.jpg, 1, [240 37 33], red, 1, 196, 1, 1, 2.8914, 3, 0.2363, 2.8922,80,37,112,0.7780,0
 13, 1, 246, S4-20.jpg, 2, [10 144 240], blue, 1, 111, 2, 1, 1.6264, 4, 0.5544, 1.6275,100,46,77,0.6979,1
 13, 1, 247, S3-12.jpg, 1, [240 37 33], red, 1, 75, 1, 1, 1.1556, 4, 0.6434, 1.1575,101,38,105,0.7780,0
 13, 1, 248, S4-20.jpg, 2, [240 37 33], red, 0, 120, 2, 1, 1.7533, 2, 0.8315, 1.7541,77,50,84,0.6979,0
 13, 1, 249, S4-20.jpg, 2, [10 144 240], blue, 1, 157, 2, 1, 2.2764, 3, 1.1131, 2.2772,77,52,83,0.6979,0
 13, 1, 250, S3-12.jpg, 1, [240 37 33], red, 1, 84, 1, 1, 1.2865, 3, 0.5733, 1.2875,93,29,98,0.7780,0
 13, 1, 251, S3-12.jpg, 1, [240 37 33], red, 1, 159, 2, 0, 2.3216, 1, 0.2841, 2.3227,91,24,101,0.7780,0
 13, 1, 252, S4-20.jpg, 2, [10 144 240], blue, 1, 322, 1, 0, 4.6689, 3, 1.1339, 4.6704,85,42,118,0.6979,0
 13, 1, 253, S4-20.jpg, 2, [240 239 10], yellow, NaN, 374, 2, 1, 5.4045, 4, 0.8459, 5.4060,80,26,77,0.6979,0
 13, 1, 254, S4-20.jpg, 2, [240 239 10], yellow, NaN, 268, 1, 0, 3.8536, 3, 0.3339, 3.8544,92,32,140,0.6979,0
 13, 1, 255, S4-20.jpg, 2, [10 144 240], blue, 1, 412, 1, 0, 6.0012, 3, 0.9998, 6.0019,102,28,98,0.6979,0
 13, 1, 256, S3-12.jpg, 1, [240 37 33], red, 1, 54, 1, 1, 0.7849, 4, 0.3639, 0.7858,99,30,76,0.7780,0
 13, 1, 257, S4-20.jpg, 2, [10 144 240], blue, 1, 177, 1, 0, 2.5872, 4, 0.7546, 2.5880,83,49,76,0.6979,0
 13, 1, 258, S3-12.jpg, 1, [240 37 33], red, 1, 331, 2, 0, 4.7519, 3, 0.3012, 4.7526,102,42,116,0.7780,0
 13, 1, 259, S3-12.jpg, 1, [10 144 240], blue, 0, 178, 1, 1, 2.5900, 3, 0.5506, 2.5909,83,43,97,0.7780,0
 13, 1, 260, S4-20.jpg, 2, [10 144 240], blue, 1, 217, 1, 0, 3.1305, 3, 0.6430, 3.1315,76,45,81,0.6979,0
 13, 1, 261, S3-12.jpg, 1, [240 37 33], red, 1, 166, 1, 1, 2.4270, 3, 0.8229, 2.4279,81,23,82,0.7780,1
 13, 1, 262, S4-20.jpg, 2, [10 144 240], blue, 1, 356, 2, 1, 5.1203, 4, 0.5192, 5.1212,108,39,118,0.6979,0
 13, 1, 263, S4-20.jpg, 2, [240 239 10], yellow, NaN, 170, 1, 0, 2.4655, 2, 1.2135, 2.4664,91,46,78,0.6979,0
 13, 1, 264, S3-12.jpg, 1, [240 37 33], red, 1, 90, 1, 1, 1.3630, 2, 0.2629, 1.3638,75,38,89,0.7780,0
 13, 1, 265, S4-20.jpg, 2, [240 37 33], red, 0, 185, 2, 1, 2.6826, 3, 0.9447, 2.6835,110,90,104,0.6979,0
 13, 1, 266, S4-20.jpg, 2, [10 144 240], blue, 1, 150, 1, 0, 2.2725, 2, 2.7543, 2.2733,121,60,92,0.6979,0
 13, 1, 267, S4-20.jpg, 2, [10 144 240], blue, 1, 126, 2, 1, 1.8019, 3, 0.0047, 1.8029,76,30,97,0.6979,1
 13, 1, 268, S3-12.jpg, 1, [240 37 33], red, 1, 60, 1, 1, 0.8836, 4, 0.5034, 0.8852,78,23,116,0.7780,1
 13, 1, 269, S3-12.jpg, 1, [10 144 240], blue, 0, 165, 2, 0, 2.3882, 4, 0.0518, 2.3896,99,34,110,0.7780,0
 13, 1, 270, S4-20.jpg, 2, [240 239 10], yellow, NaN, 153, 1, 0, 2.2212, 4, 0.3252, 2.2220,84,82,195,0.6979,0
 13, 1, 271, S3-12.jpg, 1, [240 37 33], red, 1, 117, 1, 1, 1.7069, 3, 0.7184, 1.7077,101,39,87,0.7780,0
 13, 1, 272, S4-20.jpg, 2, [240 239 10], yellow, NaN, 66, 1, 0, 0.9677, 3, 0.4103, 0.9685,125,49,109,0.6979,0
 13, 1, 273, S4-20.jpg, 2, [10 144 240], blue, 1, 107, 1, 0, 1.5967, 2, 0.2565, 1.5975,90,27,76,0.6979,0
 13, 1, 274, S4-20.jpg, 2, [10 144 240], blue, 1, 273, 2, 1, 3.9517, 3, 0.3575, 3.9528,111,65,96,0.6979,0
 13, 1, 275, S4-20.jpg, 2, [240 239 10], yellow, NaN, 347, 2, 1, 5.0339, 4, 0.7039, 5.0347,80,24,130,0.6979,0
 13, 1, 276, S3-12.jpg, 1, [240 37 33], red, 1, 188, 1, 1, 2.7920, 3, 0.9982, 2.7927,77,28,88,0.7780,0