subID,block,trial,targetImg,targetIdx,cue_rgb,cue_string,congruent,respFrame,response,accuracy,RT,confResp,confRT,flickerDuration,noise1frames,signal1frames,noise2frames,coherence,catch_trial
22,1,1, S2-19.jpg,2, [10 144 240], blue,1, NaN, NaN,0, NaN, NaN, NaN,12.2593,195,60,85,0.5157,0
22,1,2, S1-15.jpg,1, [10 144 240], blue,0, NaN, NaN,0, NaN,4,1.6561,12.367,95,93,79,0.6872,1
22,1,3, S1-15.jpg,1, [240 37 33], red,1, NaN, NaN,0, NaN,3,0.8382,12.496,91,33,89,0.6872,0
22,1,4, S2-19.jpg,2, [240 37 33], red,0,285,2,1,6.5843,3,1.9836,6.5853,85,37,102,0.5157,0
22,1,5, S2-19.jpg,2, [10 144 240], blue,1,304,2,1,6.9846,2,1.6281,6.9854,82,50,79,0.5157,0
22,1,6, S2-19.jpg,2, [10 144 240], blue,1,360,1,0,8.2728,3,0.4569,8.2736,92,38,80,0.5157,0
22,1,7, S2-19.jpg,2, [10 144 240], blue,1,337,1,0,7.8314,2,1.1277,7.8323,98,35,92,0.5157,0
22,1,8, S1-15.jpg,1, [240 37 33], red,1,348,2,0,7.9392,1,0.5107,7.9401,76,67,81,0.6872,0
22,1,9, S1-15.jpg,1, [240 37 33], red,1,279,1,1,6.4371,3,0.3846,6.4378,87,58,77,0.6872,0
22,1,10, S1-15.jpg,1, [240 239 10], yellow, NaN,373,2,0,8.6194,3,0.4674,8.62,80,50,80,0.6872,0
22,1,11, S1-15.jpg,1, [240 239 10], yellow, NaN,242,1,1,5.6059,3,1.7946,5.6066,79,87,90,0.6872,0
22,1,12, S2-19.jpg,2, [10 144 240], blue,1,325,2,1,7.5066,2,1.9606,7.5074,79,30,131,0.5157,1
22,1,13, S1-15.jpg,1, [240 37 33], red,1,344,2,0,7.9435,2,0.5189,7.9442,82,36,82,0.6872,0
22,1,14, S1-15.jpg,1, [240 37 33], red,1,358,1,1,8.264,2,0.6822,8.2647,82,63,91,0.6872,0
22,1,15, S1-15.jpg,1, [10 144 240], blue,0,274,1,1,6.2347,3,1.2789,6.2355,115,69,103,0.6872,0
22,1,16, S2-19.jpg,2, [10 144 240], blue,1,266,2,1,6.0712,2,1.0191,6.0721,101,150,83,0.5157,0
22,1,17, S2-19.jpg,2, [10 144 240], blue,1,400,2,1,9.2003,2,1.2947,9.2011,78,77,80,0.5157,0
22,1,18, S1-15.jpg,1, [240 239 10], yellow, NaN,356,1,1,8.137,1,1.0078,8.1377,132,37,84,0.6872,0
22,1,19, S2-19.jpg,2, [240 37 33], red,0,280,1,0,6.3939,3,1.4012,6.3947,81,66,79,0.5157,0
22,1,20, S1-15.jpg,1, [10 144 240], blue,0,257,2,0,5.9545, NaN, NaN,5.9555,141,37,96,0.6872,0
22,1,21, S1-15.jpg,1, [10 144 240], blue,0,317,2,0,7.292,3,0.6462,7.2929,91,94,94,0.6872,0
22,1,22, S2-19.jpg,2, [10 144 240], blue,1,206,2,1,4.7732,2,1.2306,4.7739,94,44,135,0.5157,0
22,1,23, S1-15.jpg,1, [240 37 33], red,1,169,1,1,3.8727,3,2.2012,3.8735,96,73,79,0.6872,1
22,1,24, S1-15.jpg,1, [240 37 33], red,1,231,2,0,5.3178,3,1.4151,5.3188,91,51,79,0.6872,0
22,1,25, S2-19.jpg,2, [240 239 10], yellow, NaN,208,1,0,4.8072,2,0.5834,4.808,82,32,118,0.5157,0
22,1,26, S2-19.jpg,2, [10 144 240], blue,1,323,2,1,7.4493,4,0.5924,7.4503,128,42,77,0.5157,0
22,1,27, S1-15.jpg,1, [240 37 33], red,1,375,1,1,8.6122,2,1.9541,8.6129,142,37,127,0.6872,0
22,1,28, S2-19.jpg,2, [240 37 33], red,0,289,2,1,6.696,3,0.4253,6.6969,92,44,89,0.5157,0
22,1,29, S2-19.jpg,2, [10 144 240], blue,1,344,2,1,7.9265,3,0.4472,7.9273,84,31,81,0.5157,0
22,1,30, S1-15.jpg,1, [240 37 33], red,1,452,2,0,10.2915,2,0.8115,10.2922,82,48,143,0.6872,0
22,1,31, S1-15.jpg,1, [240 37 33], red,1,235,1,1,5.4115,3,0.4442,5.4123,101,30,195,0.6872,0
22,1,32, S1-15.jpg,1, [10 144 240], blue,0,203,2,0,4.6574,3,0.3608,4.6581,106,47,78,0.6872,0
22,1,33, S1-15.jpg,1, [10 144 240], blue,0,308,2,0,7.1782,2,0.7082,7.1789,80,49,82,0.6872,0
22,1,34, S1-15.jpg,1, [240 37 33], red,1,401,2,0,9.247,3,1.0648,9.2484,78,40,104,0.6872,0
22,1,35, S1-15.jpg,1, [240 37 33], red,1,361,1,1,8.3434,2,0.9539,8.344,86,61,120,0.6872,0
22,1,36, S1-15.jpg,1, [240 37 33], red,1,277,1,1,6.4218,2,0.3417,6.4225,89,37,77,0.6872,0
22,1,37, S1-15.jpg,1, [10 144 240], blue,0,297,2,0,6.8268,3,0.7279,6.8276,97,70,82,0.6872,0
22,1,38, S2-19.jpg,2, [240 239 10], yellow, NaN,299,2,1,6.9401,3,0.7347,6.9409,92,43,101,0.5157,0
22,1,39, S1-15.jpg,1, [240 37 33], red,1,182,1,1,4.1718,4,0.3877,4.1726,95,37,81,0.6872,0
22,1,40, S2-19.jpg,2, [10 144 240], blue,1,320,2,1,7.3836,3,0.8711,7.3848,124,31,77,0.5157,0
22,1,41, S1-15.jpg,1, [240 37 33], red,1,373,2,0,8.348,2,0.7045,8.3488,77,39,81,0.6872,0
22,1,42, S2-19.jpg,2, [240 239 10], yellow, NaN,225,2,1,5.2126,3,0.4125,5.2133,119,52,88,0.5157,0
22,1,43, S2-19.jpg,2, [10 144 240], blue,1,312,2,1,7.222,4,0.3155,7.2227,84,42,85,0.5157,0
22,1,44, S2-19.jpg,2, [10 144 240], blue,1,290,2,1,6.6986,4,0.6201,6.6995,138,32,75,0.5157,0
22,1,45, S1-15.jpg,1, [240 37 33], red,1,375,1,1,8.6525,2,0.6203,8.6532,76,42,109,0.6872,0
22,1,46, S2-19.jpg,2, [240 239 10], yellow, NaN,287,2,1,6.6152,2,0.6365,6.6159,92,39,79,0.5157,0
22,1,47, S1-15.jpg,1, [240 37 33], red,1,391,2,0,9.0852,4,0.9683,9.086,131,38,82,0.6872,0
22,1,48, S2-19.jpg,2, [240 37 33], red,0,403,1,0,9.253,1,1.5142,9.2538,122,36,141,0.5157,0
22,1,49, S1-15.jpg,1, [240 37 33], red,1,306,1,1,7.0559,4,0.6534,7.0565,98,54,112,0.6872,1
22,1,50, S1-15.jpg,1, [240 37 33], red,1,186,1,1,4.3143,4,0.4075,4.315,85,61,109,0.6872,0
22,1,51, S1-15.jpg,1, [240 37 33], red,1,335,2,0,7.8091,2,1.4722,7.8099,88,46,93,0.6872,0
22,1,52, S2-19.jpg,2, [240 37 33], red,0,354,2,1,8.1958,3,0.735,8.1965,77,47,75,0.5157,0
22,1,53, S2-19.jpg,2, [10 144 240], blue,1,365,2,1,8.4198,4,0.444,8.4206,112,53,118,0.5157,0
22,1,54, S2-19.jpg,2, [10 144 240], blue,1,382,2,1,8.8557,4,0.3371,8.8567,104,63,105,0.5157,0
22,1,55, S2-19.jpg,2, [10 144 240], blue,1,317,2,1,7.3357,4,2.2248,7.3367,89,57,99,0.5157,0
22,1,56, S1-15.jpg,1, [240 37 33], red,1,353,2,0,8.1262,3,0.5566,8.1269,85,34,111,0.6872,0
22,1,57, S1-15.jpg,1, [240 239 10], yellow, NaN,318,2,0,7.3933,3,1.4495,7.3941,76,32,96,0.6872,0
22,1,58, S1-15.jpg,1, [10 144 240], blue,0,307,2,0,7.1186,3,0.6768,7.1194,76,36,77,0.6872,0
22,1,59, S2-19.jpg,2, [10 144 240], blue,1,267,2,1,6.1585,3,1.5666,6.1593,82,96,81,0.5157,1
22,1,60, S1-15.jpg,1, [240 37 33], red,1,439,2,0,10.1688,3,0.4435,10.1696,109,44,95,0.6872,0
22,1,61, S2-19.jpg,2, [10 144 240], blue,1,153,2,1,3.5376,3,0.6673,3.5385,81,60,107,0.5157,0
22,1,62, S1-15.jpg,1, [240 239 10], yellow, NaN,254,1,1,5.8524,2,0.7278,5.8531,87,40,140,0.6872,0
22,1,63, S2-19.jpg,2, [10 144 240], blue,1,255,1,0,5.9117,2,0.7432,5.9125,79,31,81,0.5157,0
22,1,64, S1-15.jpg,1, [240 37 33], red,1,279,1,1,6.4468,3,0.6574,6.4478,78,31,120,0.6872,0
22,1,65, S2-19.jpg,2, [10 144 240], blue,1,255,1,0,5.8822,1,0.9972,5.8829,90,31,90,0.5157,0
22,1,66, S2-19.jpg,2, [10 144 240], blue,1,227,2,1,5.2508,3,0.2913,5.2515,89,36,80,0.5157,0
22,1,67, S2-19.jpg,2, [10 144 240], blue,1,255,2,1,5.8816,3,0.7743,5.8823,79,42,77,0.5157,0
22,1,68, S2-19.jpg,2, [10 144 240], blue,1,283,2,1,6.5625,3,0.4254,6.5632,77,43,88,0.5157,0
22,1,69, S2-19.jpg,2, [10 144 240], blue,1,303,2,1,6.9949,3,0.587,6.9957,90,46,103,0.5157,0
22,1,70, S1-15.jpg,1, [10 144 240], blue,0,205,2,0,4.7366,2,1.5508,4.7376,106,37,129,0.6872,1
22,1,71, S1-15.jpg,1, [240 37 33], red,1,331,1,1,7.6499,3,0.7844,7.6506,80,73,102,0.6872,0
22,1,72, S1-15.jpg,1, [240 37 33], red,1,429,2,0,9.8834,3,0.3925,9.8842,76,92,99,0.6872,0
22,1,73, S2-19.jpg,2, [240 239 10], yellow, NaN,338,1,0,7.792,2,1.2114,7.7929,110,37,79,0.5157,0
22,1,74, S1-15.jpg,1, [240 37 33], red,1,336,2,0,7.7899,3,0.902,7.7906,77,98,76,0.6872,0
22,1,75, S2-19.jpg,2, [240 239 10], yellow, NaN,324,2,1,7.4875,3,0.6875,7.4882,84,39,111,0.5157,0
22,1,76, S2-19.jpg,2, [10 144 240], blue,1,153,2,1,3.5478,3,1.3667,3.5485,83,75,95,0.5157,0
22,1,77, S1-15.jpg,1, [240 239 10], yellow, NaN,321,2,0,7.3854,3,0.6422,7.3862,100,51,110,0.6872,0
22,1,78, S2-19.jpg,2, [10 144 240], blue,1,169,2,1,3.8595,3,0.593,3.8603,78,71,105,0.5157,0
22,1,79, S1-15.jpg,1, [10 144 240], blue,0,344,2,0,7.9461,3,0.4771,7.947,118,36,88,0.6872,0
22,1,80, S1-15.jpg,1, [240 239 10], yellow, NaN,252,2,0,5.8294,3,0.7064,5.8304,104,40,78,0.6872,0
22,1,81, S1-15.jpg,1, [240 37 33], red,1,291,2,0,6.7286,3,0.4742,6.7293,75,59,124,0.6872,0
22,1,82, S2-19.jpg,2, [240 37 33], red,0,225,2,1,5.1851,3,0.4965,5.1858,79,45,78,0.5157,0
22,1,83, S2-19.jpg,2, [10 144 240], blue,1,265,2,1,6.1262,3,0.6722,6.1269,82,60,86,0.5157,0
22,1,84, S2-19.jpg,2, [10 144 240], blue,1,330,2,1,7.6176,3,0.6005,7.6187,86,70,77,0.5157,0
22,1,85, S2-19.jpg,2, [240 239 10], yellow, NaN,258,2,1,5.9682,4,1.5628,5.969,96,38,84,0.5157,0
22,1,86, S1-15.jpg,1, [240 37 33], red,1,389,2,0,9.0531,3,0.2928,9.0539,94,56,102,0.6872,0
22,1,87, S1-15.jpg,1, [240 37 33], red,1,410,2,0,9.4295,2,0.4664,9.4304,80,38,103,0.6872,0
22,1,88, S1-15.jpg,1, [240 37 33], red,1,389,2,0,8.9531,1,0.4755,8.954,91,34,122,0.6872,1
22,1,89, S2-19.jpg,2, [10 144 240], blue,1,371,2,1,8.5764,3,0.1954,8.5772,76,89,96,0.5157,0
22,1,90, S2-19.jpg,2, [10 144 240], blue,1,289,2,1,6.6442,3,0.6372,6.6451,92,39,112,0.5157,0
22,1,91, S2-19.jpg,2, [240 239 10], yellow, NaN,361,2,1,8.3191,1,1.3531,8.3204,77,48,102,0.5157,0
22,1,92, S1-15.jpg,1, [240 37 33], red,1,204,1,1,4.6989,3,0.361,4.6999,93,50,138,0.6872,0
22,1,93, S2-19.jpg,2, [240 239 10], yellow, NaN,353,2,1,8.2066,3,1.5481,8.2076,80,42,76,0.5157,0
22,1,94, S1-15.jpg,1, [240 37 33], red,1,395,2,0,8.8065,3,0.776,8.8073,83,36,83,0.6872,0
22,1,95, S2-19.jpg,2, [240 37 33], red,0,371,2,1,8.5447,3,0.5812,8.5454,84,32,94,0.5157,0
22,1,96, S1-15.jpg,1, [240 37 33], red,1,362,1,1,8.3908,1,0.4796,8.3916,79,85,106,0.6872,1
22,1,97, S1-15.jpg,1, [240 37 33], red,1,387,2,0,8.9088,4,1.1854,8.9095,97,43,110,0.6872,0
22,1,98, S2-19.jpg,2, [240 239 10], yellow, NaN,334,2,1,7.7159,3,0.9834,7.7166,78,35,99,0.5157,0
22,1,99, S1-15.jpg,1, [240 37 33], red,1,516,2,0,12.0041,3,0.8431,12.0056,102,38,109,0.6872,0
22,1,100, S2-19.jpg,2, [240 37 33], red,0,424,2,1,9.7742,3,0.4142,9.7751,83,38,117,0.5157,0
22,1,101, S2-19.jpg,2, [10 144 240], blue,1,333,2,1,7.6908,3,1.2352,7.6915,76,33,126,0.5157,0
22,1,102, S2-19.jpg,2, [10 144 240], blue,1,329,2,1,7.4821,3,0.7527,7.483,91,39,79,0.5157,0
22,1,103, S2-19.jpg,2, [10 144 240], blue,1,403,2,1,9.2799,1,1.6017,9.2807,88,47,93,0.5157,0
22,1,104, S1-15.jpg,1, [240 239 10], yellow, NaN,399,1,1,9.2162,3,1.8105,9.217,88,54,97,0.6872,1
22,1,105, S1-15.jpg,1, [240 239 10], yellow, NaN,342,2,0,7.7711,3,1.7022,7.7721,140,40,78,0.6872,0
22,1,106, S2-19.jpg,2, [240 239 10], yellow, NaN,343,2,1,7.9167,2,1.4726,7.9175,93,45,92,0.5157,0
22,1,107, S2-19.jpg,2, [240 37 33], red,0, NaN, NaN,0, NaN, NaN, NaN,12.5134,83,48,98,0.5157,0
22,1,108, S2-19.jpg,2, [10 144 240], blue,1,351,2,1,8.0909,2,0.7487,8.0917,86,41,119,0.5157,0
22,1,109, S2-19.jpg,2, [10 144 240], blue,1,331,2,1,7.6229,3,0.6638,7.6236,89,42,81,0.5157,1
22,1,110, S1-15.jpg,1, [10 144 240], blue,0,269,2,0,6.3035,3,1.7771,6.3043,77,55,97,0.6872,0
22,1,111, S1-15.jpg,1, [240 37 33], red,1,328,2,0,7.5426,3,0.8151,7.5434,127,57,77,0.6872,0
22,1,112, S2-19.jpg,2, [240 239 10], yellow, NaN,303,2,1,6.9857,4,1.1847,6.9871,136,59,76,0.5157,0
22,1,113, S1-15.jpg,1, [240 239 10], yellow, NaN,341,2,0,7.8608,2,0.8007,7.8615,89,36,95,0.6872,0
22,1,114, S2-19.jpg,2, [10 144 240], blue,1,352,2,1,8.1171,3,0.6546,8.1178,88,65,117,0.5157,0
22,1,115, S1-15.jpg,1, [240 239 10], yellow, NaN,339,2,0,7.8336,4,1.3259,7.8344,85,34,76,0.6872,0
22,1,116, S2-19.jpg,2, [10 144 240], blue,1,400,2,1,9.2438,2,1.6645,9.2447,112,41,86,0.5157,0
22,1,117, S1-15.jpg,1, [240 37 33], red,1,217,1,1,5.0193,3,1.4219,5.0201,86,55,106,0.6872,0
22,1,118, S1-15.jpg,1, [240 239 10], yellow, NaN,399,2,0,9.1939,3,0.8656,9.1949,75,35,108,0.6872,0
22,1,119, S2-19.jpg,2, [240 239 10], yellow, NaN,396,2,1,9.1205,3,0.9414,9.1215,81,33,87,0.5157,0
22,1,120, S1-15.jpg,1, [240 37 33], red,1,425,2,0,9.8138,3,0.6007,9.8145,96,52,104,0.6872,0
22,1,121, S1-15.jpg,1, [240 239 10], yellow, NaN,307,1,1,7.0826, NaN, NaN,7.0834,109,35,113,0.6872,0
22,1,122, S1-15.jpg,1, [240 37 33], red,1,168,1,1,3.8932,2,0.5365,3.8939,110,31,87,0.6872,1
22,1,123, S1-15.jpg,1, [240 37 33], red,1,371,1,1,8.5691,3,0.3018,8.57,100,48,85,0.6872,0
22,1,124, S1-15.jpg,1, [240 37 33], red,1,361,1,1,8.3705,2,0.5105,8.3714,90,65,83,0.6872,0
22,1,125, S2-19.jpg,2, [240 239 10], yellow, NaN,218,1,0,4.9129,3,0.4063,4.9137,79,34,93,0.5157,0
22,1,126, S1-15.jpg,1, [240 37 33], red,1,347,1,1,8.0288,1,0.7673,8.0297,98,35,97,0.6872,0
22,1,127, S1-15.jpg,1, [240 37 33], red,1,332,2,0,7.5723,3,0.5393,7.573,76,69,87,0.6872,0
22,1,128, S2-19.jpg,2, [10 144 240], blue,1,334,2,1,7.6993,3,0.3248,7.7001,81,31,84,0.5157,0
22,1,129, S1-15.jpg,1, [240 37 33], red,1,164,1,1,3.8,2,0.5921,3.8009,79,35,77,0.6872,0
22,1,130, S1-15.jpg,1, [240 37 33], red,1,151,1,1,3.4968,4,1.4526,3.4975,81,78,85,0.6872,0
22,1,131, S2-19.jpg,2, [240 37 33], red,0,256,2,1,5.9161,3,0.3754,5.9168,87,32,78,0.5157,1
22,1,132, S1-15.jpg,1, [240 37 33], red,1,188,1,1,4.3262,3,0.4923,4.3271,83,33,91,0.6872,0
22,1,133, S2-19.jpg,2, [10 144 240], blue,1,215,2,1,4.96,1,0.5962,4.9608,80,56,76,0.5157,0
22,1,134, S1-15.jpg,1, [240 37 33], red,1,259,2,0,5.9906,3,0.3972,5.9914,80,58,75,0.6872,0
22,1,135, S2-19.jpg,2, [10 144 240], blue,1,274,2,1,6.3092,3,0.6491,6.31,77,33,88,0.5157,0
22,1,136, S2-19.jpg,2, [240 37 33], red,0,258,2,1,5.9694,4,0.3221,5.9701,99,40,80,0.5157,0
22,1,137, S1-15.jpg,1, [240 37 33], red,1,227,2,0,5.2523,3,0.3332,5.2533,78,68,84,0.6872,0
22,1,138, S1-15.jpg,1, [240 239 10], yellow, NaN,399,2,0,9.2058,4,0.4645,9.2065,121,31,80,0.6872,0
22,1,139, S1-15.jpg,1, [10 144 240], blue,0,493,2,0,11.3403,3,0.4826,11.341,90,55,81,0.6872,0
22,1,140, S1-15.jpg,1, [240 239 10], yellow, NaN,431,2,0,9.9386,3,0.4121,9.9394,86,31,134,0.6872,1
22,1,141, S2-19.jpg,2, [10 144 240], blue,1,312,2,1,7.1729,4,1.4309,7.1739,139,32,80,0.5157,0
22,1,142, S2-19.jpg,2, [240 239 10], yellow, NaN,458,2,1,10.4895,4,0.5751,10.4907,77,40,93,0.5157,0
22,1,143, S2-19.jpg,2, [10 144 240], blue,1,341,2,1,7.8479,4,0.7836,7.8486,94,68,85,0.5157,0
22,1,144, S1-15.jpg,1, [240 37 33], red,1,346,2,0,8.0213,3,0.5213,8.0221,82,34,76,0.6872,0
22,1,145, S2-19.jpg,2, [240 239 10], yellow, NaN,243,2,1,5.5988,4,0.5898,5.5996,91,46,76,0.5157,0
22,1,146, S2-19.jpg,2, [10 144 240], blue,1,221,2,1,5.0992,4,0.5483,5.1001,88,31,78,0.5157,1
22,1,147, S2-19.jpg,2, [240 239 10], yellow, NaN,155,2,1,3.6016,4,0.552,3.6024,86,49,89,0.5157,0
22,1,148, S1-15.jpg,1, [10 144 240], blue,0,244,2,0,5.7013,4,0.35,5.702,116,44,98,0.6872,0
22,1,149, S2-19.jpg,2, [10 144 240], blue,1,212,2,1,4.9235,4,0.3239,4.9244,135,41,84,0.5157,1
22,1,150, S2-19.jpg,2, [10 144 240], blue,1,181,2,1,4.1994,4,0.6155,4.2001,94,75,121,0.5157,0
22,1,151, S2-19.jpg,2, [10 144 240], blue,1,344,2,1,7.922,4,0.4848,7.9227,125,64,130,0.5157,0
22,1,152, S1-15.jpg,1, [10 144 240], blue,0,364,2,0,8.3886,3,1.0608,8.3894,108,95,137,0.6872,0
22,1,153, S2-19.jpg,2, [240 37 33], red,0,268,2,1,6.2253,2,1.8339,6.226,108,40,89,0.5157,0
22,1,154, S2-19.jpg,2, [10 144 240], blue,1,262,2,1,6.0495,3,0.3849,6.0504,102,45,81,0.5157,0
22,1,155, S2-19.jpg,2, [240 37 33], red,0,346,2,1,7.955,4,1.4068,7.9572,79,38,84,0.5157,0
22,1,156, S2-19.jpg,2, [10 144 240], blue,1,342,1,0,7.9116,2,0.6361,7.9123,87,74,108,0.5157,0
22,1,157, S1-15.jpg,1, [240 37 33], red,1,160,1,1,3.6876,4,0.672,3.6884,90,32,81,0.6872,0
22,1,158, S2-19.jpg,2, [240 239 10], yellow, NaN,234,2,1,5.3855,3,0.4482,5.3865,78,66,88,0.5157,0
22,1,159, S2-19.jpg,2, [10 144 240], blue,1,211,2,1,4.8853,4,0.2989,4.886,107,76,97,0.5157,0
22,1,160, S1-15.jpg,1, [240 37 33], red,1,276,2,0,6.44,4,1.8541,6.4408,133,33,119,0.6872,0
22,1,161, S1-15.jpg,1, [240 37 33], red,1,391,2,0,9.0106,3,0.5515,9.0112,107,33,104,0.6872,0
22,1,162, S2-19.jpg,2, [10 144 240], blue,1,299,2,1,6.9008,4,0.7995,6.9016,103,49,94,0.5157,0
22,1,163, S2-19.jpg,2, [10 144 240], blue,1,271,2,1,6.2401,4,0.7204,6.2415,87,47,79,0.5157,0
22,1,164, S1-15.jpg,1, [240 239 10], yellow, NaN,279,2,0,6.4353,4,1.5707,6.436,78,45,96,0.6872,0
22,1,165, S1-15.jpg,1, [240 239 10], yellow, NaN,314,2,0,7.2876,2,0.9789,7.2885,105,39,90,0.6872,0
22,1,166, S2-19.jpg,2, [10 144 240], blue,1,255,2,1,5.8714,3,1.3939,5.8721,99,33,82,0.5157,0
22,1,167, S1-15.jpg,1, [240 239 10], yellow, NaN,358,2,0,8.2902,3,0.9357,8.2909,80,30,76,0.6872,0
22,1,168, S2-19.jpg,2, [10 144 240], blue,1,233,2,1,5.3706,3,1.2065,5.3716,108,33,96,0.5157,0
22,1,169, S1-15.jpg,1, [240 239 10], yellow, NaN,401,1,1,9.2449,1,0.4072,9.246,87,47,114,0.6872,0
22,1,170, S1-15.jpg,1, [240 37 33], red,1,154,1,1,3.5627,3,0.6566,3.5641,75,32,76,0.6872,0
22,1,171, S1-15.jpg,1, [240 37 33], red,1,345,1,1,8.016,2,0.7033,8.0167,83,81,139,0.6872,0
22,1,172, S1-15.jpg,1, [240 37 33], red,1,496,2,0,11.4175,2,1.2853,11.4182,96,84,101,0.6872,0
22,1,173, S2-19.jpg,2, [240 37 33], red,0,402,2,1,9.2634,2,0.8823,9.2641,119,31,107,0.5157,0
22,1,174, S2-19.jpg,2, [10 144 240], blue,1,433,2,1,9.9355,4,0.4852,9.9365,126,56,123,0.5157,0
22,1,175, S2-19.jpg,2, [10 144 240], blue,1,426,2,1,9.8392,3,0.4584,9.8398,94,82,100,0.5157,0
22,1,176, S2-19.jpg,2, [240 239 10], yellow, NaN,254,2,1,5.8809,3,0.9339,5.8816,83,49,79,0.5157,1
22,1,177, S1-15.jpg,1, [240 37 33], red,1,370,2,0,8.5341,3,1.2841,8.535,105,34,94,0.6872,0
22,1,178, S1-15.jpg,1, [240 37 33], red,1,374,2,0,8.6168,4,0.2902,8.6177,81,42,92,0.6872,1
22,1,179, S2-19.jpg,2, [10 144 240], blue,1,274,2,1,6.316,4,0.8046,6.3167,84,41,101,0.5157,0
22,1,180, S2-19.jpg,2, [240 239 10], yellow, NaN,299,2,1,6.9005,3,0.6948,6.9012,96,56,92,0.5157,0
22,1,181, S1-15.jpg,1, [240 37 33], red,1,282,2,0,6.5023,3,0.5597,6.503,82,32,82,0.6872,0
22,1,182, S1-15.jpg,1, [240 239 10], yellow, NaN,191,2,0,4.3451,4,1.0693,4.346,93,91,87,0.6872,0
22,1,183, S1-15.jpg,1, [240 37 33], red,1,277,2,0,6.4366,3,0.4506,6.4374,116,36,90,0.6872,0
22,1,184, S2-19.jpg,2, [10 144 240], blue,1,272,2,1,6.2889,3,0.5344,6.2898,104,65,77,0.5157,0
22,1,185, S1-15.jpg,1, [240 37 33], red,1,374,2,0,8.6645,3,0.3127,8.6654,85,34,133,0.6872,0
22,1,186, S1-15.jpg,1, [240 239 10], yellow, NaN,211,2,0,4.8606,3,0.6109,4.8615,78,97,86,0.6872,0
22,1,187, S2-19.jpg,2, [240 37 33], red,0,420,2,1,9.7094,2,0.6171,9.7101,114,32,90,0.5157,0
22,1,188, S1-15.jpg,1, [10 144 240], blue,0,235,2,0,5.4513,3,0.6073,5.4522,95,44,83,0.6872,0
22,1,189, S1-15.jpg,1, [240 239 10], yellow, NaN,503,2,0,11.6912,3,0.59,11.692,84,58,87,0.6872,0
22,1,190, S1-15.jpg,1, [10 144 240], blue,0,201,2,0,4.6782,4,1.1729,4.6789,97,43,78,0.6872,0
22,1,191, S1-15.jpg,1, [240 37 33], red,1,242,1,1,5.5798,2,1.104,5.5806,113,38,113,0.6872,0
22,1,192, S2-19.jpg,2, [10 144 240], blue,1,267,2,1,6.1689,4,0.5517,6.1699,76,33,105,0.5157,0
22,1,193, S2-19.jpg,2, [240 37 33], red,0,223,1,0,5.1215,2,0.0002,5.1224,130,42,77,0.5157,0
22,1,194, S2-19.jpg,2, [10 144 240], blue,1,313,1,0,7.2087,3,0.4794,7.2101,89,53,85,0.5157,0
22,1,195, S2-19.jpg,2, [10 144 240], blue,1,306,1,0,7.0131,3,0.8933,7.0139,77,36,106,0.5157,1
22,1,196, S2-19.jpg,2, [10 144 240], blue,1,400,2,1,9.3062,3,0.4003,9.3072,88,51,87,0.5157,0
22,1,197, S1-15.jpg,1, [240 37 33], red,1,539,1,1,12.404,2,0.6031,12.4047,143,38,98,0.6872,0
22,1,198, S1-15.jpg,1, [240 37 33], red,1,275,2,0,6.3531,3,0.2695,6.3538,111,64,78,0.6872,0
22,1,199, S2-19.jpg,2, [10 144 240], blue,1,396,2,1,9.1526,4,0.5261,9.1535,77,32,100,0.5157,1
22,1,200, S1-15.jpg,1, [240 37 33], red,1,513,1,1,11.811,2,0.4993,11.8125,118,41,110,0.6872,0
22,1,201, S2-19.jpg,2, [10 144 240], blue,1,420,2,1,9.6723,3,0.5275,9.6733,114,53,75,0.5157,0
22,1,202, S2-19.jpg,2, [240 37 33], red,0,225,1,0,5.2128,2,0.65,5.2135,123,51,85,0.5157,0
22,1,203, S2-19.jpg,2, [10 144 240], blue,1,326,2,1,7.5212,3,0.3581,7.5223,85,53,107,0.5157,0
22,1,204, S2-19.jpg,2, [10 144 240], blue,1,444,2,1,10.2248,2,1.2021,10.2256,92,57,91,0.5157,0
22,1,205, S2-19.jpg,2, [240 239 10], yellow, NaN,342,1,0,7.9564,2,0.5425,7.9573,137,39,100,0.5157,1
22,1,206, S1-15.jpg,1, [240 37 33], red,1,279,2,0,6.4597,2,2.8469,6.4604,99,45,86,0.6872,0
22,1,207, S2-19.jpg,2, [240 239 10], yellow, NaN,297,2,1,6.8539,3,1.0137,6.8546,134,32,80,0.5157,0
22,1,208, S1-15.jpg,1, [240 37 33], red,1,314,2,0,7.2895,3,0.6667,7.2905,115,34,88,0.6872,1
22,1,209, S1-15.jpg,1, [240 37 33], red,1,285,2,0,6.6166,4,0.9373,6.6174,76,59,83,0.6872,0
22,1,210, S1-15.jpg,1, [10 144 240], blue,0,350,2,0,8.0637,3,0.7636,8.0646,120,44,95,0.6872,0
22,1,211, S1-15.jpg,1, [240 239 10], yellow, NaN,396,2,0,9.1085,3,0.6825,9.1092,100,36,86,0.6872,0
22,1,212, S1-15.jpg,1, [240 239 10], yellow, NaN,365,2,0,8.4069,3,1.0018,8.4078,102,62,77,0.6872,0
22,1,213, S1-15.jpg,1, [240 37 33], red,1,411,1,1,9.4876,2,0.5374,9.4891,76,62,83,0.6872,0
22,1,214, S2-19.jpg,2, [10 144 240], blue,1,357,2,1,8.1982,2,0.6776,8.1991,75,35,80,0.5157,0
22,1,215, S2-19.jpg,2, [10 144 240], blue,1,304,2,1,7.0368,3,1.9623,7.0376,117,45,103,0.5157,0
22,1,216, S1-15.jpg,1, [240 37 33], red,1,481,2,0,11.1018,3,0.57,11.1025,75,90,89,0.6872,0
22,1,217, S1-15.jpg,1, [240 37 33], red,1,299,1,1,6.9023,4,0.3852,6.903,81,43,83,0.6872,0
22,1,218, S2-19.jpg,2, [10 144 240], blue,1,364,2,1,8.3988,3,0.5477,8.3998,103,50,85,0.5157,0
22,1,219, S2-19.jpg,2, [240 37 33], red,0,286,1,0,6.6117,2,0.7282,6.6127,120,72,82,0.5157,1
22,1,220, S2-19.jpg,2, [240 239 10], yellow, NaN,418,2,1,9.644,3,1.228,9.6451,93,43,86,0.5157,0
22,1,221, S1-15.jpg,1, [10 144 240], blue,0,185,2,0,4.2912,3,0.6493,4.292,87,50,101,0.6872,0
22,1,222, S1-15.jpg,1, [240 37 33], red,1,230,2,0,5.2973,3,0.8192,5.298,93,35,100,0.6872,0
22,1,223, S1-15.jpg,1, [240 239 10], yellow, NaN,171,1,1,3.9502,4,1.2696,3.951,101,63,86,0.6872,1
22,1,224, S1-15.jpg,1, [240 37 33], red,1,312,2,0,7.1966,3,0.3167,7.1974,88,61,91,0.6872,0
22,1,225, S2-19.jpg,2, [10 144 240], blue,1,168,2,1,3.8658,4,0.3439,3.8672,81,46,116,0.5157,0
22,1,226, S2-19.jpg,2, [240 239 10], yellow, NaN,266,2,1,6.1122,4,0.4636,6.1134,78,52,76,0.5157,1
22,1,227, S2-19.jpg,2, [10 144 240], blue,1,304,2,1,7.0255,3,0.8782,7.0265,84,34,87,0.5157,0
22,1,228, S2-19.jpg,2, [10 144 240], blue,1,175,1,0,4.0447,2,0.6828,4.0453,97,48,75,0.5157,0
22,1,229, S1-15.jpg,1, [240 37 33], red,1,176,1,1,4.0859,2,1.3167,4.0866,82,57,89,0.6872,0
22,1,230, S2-19.jpg,2, [10 144 240], blue,1,438,2,1,10.0989,3,0.5904,10.0998,93,71,99,0.5157,0
22,1,231, S1-15.jpg,1, [240 239 10], yellow, NaN, NaN, NaN,0, NaN,1,1.1622,12.4121,86,44,115,0.6872,0
22,1,232, S1-15.jpg,1, [240 37 33], red,1,168,2,0,3.9051,3,0.3049,3.9059,95,150,92,0.6872,0
22,1,233, S1-15.jpg,1, [10 144 240], blue,0,157,1,1,3.683,4,0.3292,3.6838,109,37,78,0.6872,0
22,1,234, S1-15.jpg,1, [240 37 33], red,1,253,1,1,5.7947,3,0.7165,5.7956,117,34,84,0.6872,0
22,1,235, S1-15.jpg,1, [240 37 33], red,1,312,2,0,7.2062,3,0.2252,7.2069,105,45,79,0.6872,0
22,1,236, S2-19.jpg,2, [10 144 240], blue,1,286,2,1,6.5805,4,0.8983,6.5812,100,30,76,0.5157,0
22,1,237, S1-15.jpg,1, [240 37 33], red,1,376,2,0,8.8014,3,0.4001,8.8024,89,43,114,0.6872,0
22,1,238, S2-19.jpg,2, [240 37 33], red,0,283,2,1,6.5565,3,0.3489,6.5574,80,31,83,0.5157,0
22,1,239, S2-19.jpg,2, [10 144 240], blue,1,258,1,0,5.9574,3,0.5628,5.9583,101,33,78,0.5157,0
22,1,240, S1-15.jpg,1, [240 37 33], red,1,297,2,0,6.8472,3,1.3016,6.848,83,33,142,0.6872,0
22,1,241, S1-15.jpg,1, [240 37 33], red,1,371,2,0,8.5621,3,1.5652,8.5632,95,41,97,0.6872,0
22,1,242, S2-19.jpg,2, [240 37 33], red,0,270,2,1,6.3029,3,0.5731,6.3038,99,52,75,0.5157,0
22,1,243, S2-19.jpg,2, [240 37 33], red,0,85,1,0,2.0005,3,0.2633,2.0013,106,74,115,0.5157,0
22,1,244, S2-19.jpg,2, [10 144 240], blue,1,191,1,0,4.4099,4,0.2921,4.4106,129,32,82,0.5157,0
22,1,245, S2-19.jpg,2, [10 144 240], blue,1,110,2,1,2.5631,3,0.0907,2.564,75,40,128,0.5157,0
22,1,246, S2-19.jpg,2, [10 144 240], blue,1,164,2,1,3.6,3,0.2876,3.6009,84,88,132,0.5157,0
22,1,247, S1-15.jpg,1, [240 37 33], red,1,128,2,0,2.9533,4,0.447,2.9547,78,46,77,0.6872,0
22,1,248, S1-15.jpg,1, [10 144 240], blue,0,228,2,0,5.1536,4,0.4073,5.1545,110,80,125,0.6872,0
22,1,249, S2-19.jpg,2, [10 144 240], blue,1,237,2,1,5.4619,4,0.5019,5.4626,103,54,89,0.5157,0
22,1,250, S2-19.jpg,2, [10 144 240], blue,1,173,2,1,4.0003,4,0.3468,4.0011,90,48,88,0.5157,1
22,1,251, S2-19.jpg,2, [10 144 240], blue,1,358,2,1,8.2427,3,0.3815,8.2438,98,54,98,0.5157,0
22,1,252, S1-15.jpg,1, [240 239 10], yellow, NaN,151,2,0,3.4756,4,0.3785,3.4763,90,86,93,0.6872,0
22,1,253, S1-15.jpg,1, [240 37 33], red,1,354,2,0,8.1437,3,0.2155,8.1444,80,47,195,0.6872,0
22,1,254, S1-15.jpg,1, [240 37 33], red,1,228,2,0,5.2579,3,0.6141,5.2589,76,41,76,0.6872,0
22,1,255, S2-19.jpg,2, [240 37 33], red,0,231,2,1,5.3213,4,0.7519,5.3221,77,34,78,0.5157,0
22,1,256, S1-15.jpg,1, [240 239 10], yellow, NaN,221,2,0,5.1219,3,0.2799,5.1227,102,72,80,0.6872,0
22,1,257, S2-19.jpg,2, [240 239 10], yellow, NaN,298,2,1,6.8921,3,0.5317,6.893,81,62,91,0.5157,0
22,1,258, S2-19.jpg,2, [10 144 240], blue,1,347,2,1,8.0017,3,0.4483,8.0031,107,67,95,0.5157,0
22,1,259, S2-19.jpg,2, [10 144 240], blue,1,272,1,0,6.2182,2,0.9265,6.219,87,39,93,0.5157,0
22,1,260, S1-15.jpg,1, [240 37 33], red,1,311,1,1,7.1569,1,0.8611,7.1578,77,35,108,0.6872,0
22,1,261, S1-15.jpg,1, [10 144 240], blue,0,302,2,0,7.0114,3,0.3083,7.0122,80,46,87,0.6872,0
22,1,262, S2-19.jpg,2, [10 144 240], blue,1,335,2,1,7.7143,3,0.3903,7.7153,103,83,94,0.5157,0
22,1,263, S1-15.jpg,1, [240 37 33], red,1,364,2,0,8.4615,3,0.6466,8.4623,84,30,82,0.6872,0
22,1,264, S1-15.jpg,1, [240 37 33], red,1,148,2,0,3.4393,3,0.3886,3.4402,81,30,80,0.6872,0
22,1,265, S2-19.jpg,2, [10 144 240], blue,1,175,2,1,4.065,3,0.4922,4.0659,78,52,84,0.5157,0
22,1,266, S2-19.jpg,2, [10 144 240], blue,1,454,2,1,10.4633,3,0.5359,10.4642,85,41,82,0.5157,0
22,1,267, S2-19.jpg,2, [10 144 240], blue,1,353,2,1,8.1366,3,0.7103,8.1374,111,51,90,0.5157,0
22,1,268, S1-15.jpg,1, [240 37 33], red,1,288,2,0,6.6457,3,0.8335,6.6464,79,49,83,0.6872,0
22,1,269, S2-19.jpg,2, [240 239 10], yellow, NaN,356,2,1,8.2192,3,0.8091,8.22,195,39,86,0.5157,0
22,1,270, S2-19.jpg,2, [10 144 240], blue,1,136,2,1,3.164,3,0.4837,3.1648,77,37,90,0.5157,0
22,1,271, S2-19.jpg,2, [240 239 10], yellow, NaN,145,2,1,3.3531,3,1.073,3.3538,85,35,84,0.5157,0
22,1,272, S1-15.jpg,1, [10 144 240], blue,0,217,2,0,5.0117,3,0.8152,5.0129,113,79,78,0.6872,0
22,1,273, S1-15.jpg,1, [240 37 33], red,1,286,2,0,6.6079,3,0.7214,6.6087,83,58,91,0.6872,0
22,1,274, S1-15.jpg,1, [240 37 33], red,1,197,1,1,4.5478,3,0.9271,4.5486,97,35,136,0.6872,1
22,1,275, S2-19.jpg,2, [10 144 240], blue,1,150,2,1,3.5267,3,0.3817,3.5276,86,55,92,0.5157,0
22,1,276, S2-19.jpg,2, [240 239 10], yellow, NaN,195,1,0,4.4917,3,0.2979,4.4924,79,64,116,0.5157,0