subID,block,trial,targetImage,targetIdx,coherence,respFrame,response,accuracy,RT,flickerDuration
 11, 1, 1, S2-19.jpg, 2, 0.63, 136, 1, 0, 1.8321, 1.8345
 11, 1, 2, S1-15.jpg, 1, 0.53, 158, 2, 0, 2.1169, 2.1177
 11, 1, 3, S2-19.jpg, 2, 0.71, 151, 1, 0, 2.0202, 2.0217
 11, 1, 4, S2-19.jpg, 2, 0.53, 189, 1, 0, 2.5238, 2.5248
 11, 1, 5, S1-15.jpg, 1, 0.63, 158, 2, 0, 2.1132, 2.1142
 11, 1, 6, S2-19.jpg, 2, 0.61, 233, 2, 1, 3.1124, 3.1138
 11, 1, 7, S1-15.jpg, 1, 0.71, 267, 1, 1, 3.5651, 3.5661
 11, 1, 8, S2-19.jpg, 2, 0.59, 148, 1, 0, 1.9798, 1.9813
 11, 1, 9, S2-19.jpg, 2, 0.76, 175, 1, 0, 2.3379, 2.3389
 11, 1, 10, S1-15.jpg, 1, 0.61, 292, 1, 1, 3.8988, 3.8997
 11, 1, 11, S2-19.jpg, 2, 0.79, 162, 2, 1, 2.1661, 2.1670
 11, 1, 12, S1-15.jpg, 1, 0.59, 160, 2, 0, 2.1399, 2.1409
 11, 1, 13, S2-19.jpg, 2, 0.78, 246, 1, 0, 3.3253, 3.3262
 11, 1, 14, S1-15.jpg, 1, 0.64, 209, 2, 0, 2.8194, 2.8203
 11, 1, 15, S1-15.jpg, 1, 0.69, 347, 1, 1, 4.6461, 4.6469
 11, 1, 16, S1-15.jpg, 1, 0.67, 148, 1, 1, 1.9804, 1.9813
 11, 1, 17, S1-15.jpg, 1, 0.67, 287, 2, 0, 3.8326, 3.8340
 11, 1, 18, S1-15.jpg, 1, 0.66, 198, 2, 0, 2.6451, 2.6461
 11, 1, 19, S1-15.jpg, 1, 0.72, 92, 1, 1, 1.2335, 1.2343
 11, 1, 20, S1-15.jpg, 1, 0.69, 340, 1, 1, 4.5395, 4.5405
 11, 1, 21, S2-19.jpg, 2, 0.80, 154, 2, 1, 2.0597, 2.0612
 11, 1, 22, S2-19.jpg, 2, 0.64, 81, 1, 0, 1.0850, 1.0860
 11, 1, 23, S1-15.jpg, 1, 0.71, 150, 1, 1, 2.0193, 2.0200
 11, 1, 24, S2-19.jpg, 2, 0.67, 381, 1, 0, 5.0863, 5.0873
 11, 1, 25, S1-15.jpg, 1, 0.69, 202, 1, 1, 2.7116, 2.7124
 11, 1, 26, S2-19.jpg, 2, 0.69, 312, 1, 0, 4.1931, 4.1939
 11, 1, 27, S2-19.jpg, 2, 0.79, 284, 2, 1, 3.8066, 3.8079
 11, 1, 28, S1-15.jpg, 1, 0.68, 134, 1, 1, 1.8055, 1.8063
 11, 1, 29, S1-15.jpg, 1, 0.67, 174, 2, 0, 2.3672, 2.3687
 11, 1, 30, S2-19.jpg, 2, 0.71, 199, 2, 1, 2.6712, 2.6722
 11, 1, 31, S1-15.jpg, 1, 0.71, 212, 2, 0, 2.8327, 2.8336
 11, 1, 32, S2-19.jpg, 2, 0.70, 308, 1, 0, 4.1029, 4.1038
 11, 1, 33, S1-15.jpg, 1, 0.74, 159, 2, 0, 2.1350, 2.1357
 11, 1, 34, S1-15.jpg, 1, 0.67, 403, 1, 1, 5.3795, 5.3802
 11, 1, 35, S2-19.jpg, 2, 0.78, 175, 2, 1, 2.3373, 2.3381
 11, 1, 36, S2-19.jpg, 2, 0.71, 288, 2, 1, 3.8441, 3.8450
 11, 1, 37, S2-19.jpg, 2, 0.78, 124, 2, 1, 1.6548, 1.6562
 11, 1, 38, S2-19.jpg, 2, 0.71, 227, 1, 0, 3.0346, 3.0357
 11, 1, 39, S2-19.jpg, 2, 0.77, 316, 2, 1, 4.2099, 4.2108
 11, 1, 40, S2-19.jpg, 2, 0.72, 198, 2, 1, 2.6413, 2.6423
 11, 1, 41, S2-19.jpg, 2, 0.76, 149, 2, 1, 1.9843, 1.9857
 11, 1, 42, S1-15.jpg, 1, 0.66, 160, 1, 1, 2.1542, 2.1551
 11, 1, 43, S1-15.jpg, 1, 0.77, 224, 1, 1, 3.0019, 3.0026
 11, 1, 44, S2-19.jpg, 2, 0.71, 165, 2, 1, 2.2072, 2.2081
 11, 1, 45, S1-15.jpg, 1, 0.76, 240, 2, 0, 3.2010, 3.2024
 11, 1, 46, S2-19.jpg, 2, 0.71, 192, 2, 1, 2.5680, 2.5688
 11, 1, 47, S2-19.jpg, 2, 0.76, 173, 2, 1, 2.3120, 2.3129
 11, 1, 48, S2-19.jpg, 2, 0.71, 174, 2, 1, 2.3176, 2.3186
 11, 1, 49, S1-15.jpg, 1, 0.78, 279, 2, 0, 3.7208, 3.7216
 11, 1, 50, S1-15.jpg, 1, 0.65, 101, 1, 1, 1.3530, 1.3539
 11, 1, 51, S1-15.jpg, 1, 0.80, 150, 1, 1, 2.0022, 2.0030
 11, 1, 52, S2-19.jpg, 2, 0.70, 152, 2, 1, 2.0309, 2.0318
 11, 1, 53, S1-15.jpg, 1, 0.79, 285, 2, 0, 3.8050, 3.8058
 11, 1, 54, S1-15.jpg, 1, 0.65, 123, 1, 1, 1.6460, 1.6467
 11, 1, 55, S2-19.jpg, 2, 0.75, 338, 1, 0, 4.5098, 4.5109
 11, 1, 56, S1-15.jpg, 1, 0.64, 366, 2, 0, 4.8808, 4.8818
 11, 1, 57, S1-15.jpg, 1, 0.80, 152, 2, 0, 2.0256, 2.0264
 11, 1, 58, S1-15.jpg, 1, 0.66, 192, 2, 0, 2.5771, 2.5781
 11, 1, 59, S1-15.jpg, 1, 0.81, 215, 1, 1, 2.8680, 2.8690
 11, 1, 60, S1-15.jpg, 1, 0.68, 199, 1, 1, 2.6502, 2.6514
 11, 1, 61, S1-15.jpg, 1, 0.81, 188, 2, 0, 2.5032, 2.5041
 11, 1, 62, S1-15.jpg, 1, 0.67, 187, 2, 0, 2.4933, 2.4943
 11, 1, 63, S2-19.jpg, 2, 0.77, 382, 1, 0, 5.0924, 5.0939
 11, 1, 64, S2-19.jpg, 2, 0.70, 406, 1, 0, 5.4110, 5.4119
 11, 1, 65, S1-15.jpg, 1, 0.82, 76, 2, 0, 1.0152, 1.0163
 11, 1, 66, S2-19.jpg, 2, 0.71, 70, 2, 1, 0.9351, 0.9361
 11, 1, 67, S1-15.jpg, 1, 0.82, 113, 1, 1, 1.5087, 1.5098
 11, 1, 68, S1-15.jpg, 1, 0.69, 85, 2, 0, 1.1300, 1.1308
 11, 1, 69, S1-15.jpg, 1, 0.82, 127, 2, 0, 1.6974, 1.6984
 11, 1, 70, S2-19.jpg, 2, 0.71, 319, 2, 1, 4.2653, 4.2661
 11, 1, 71, S2-19.jpg, 2, 0.78, 368, 1, 0, 4.9130, 4.9144
 11, 1, 72, S2-19.jpg, 2, 0.70, 124, 2, 1, 1.6501, 1.6509
 11, 1, 73, S1-15.jpg, 1, 0.82, 199, 1, 1, 2.6573, 2.6583
 11, 1, 74, S2-19.jpg, 2, 0.70, 210, 1, 0, 2.8255, 2.8262
 11, 1, 75, S1-15.jpg, 1, 0.82, 168, 1, 1, 2.2472, 2.2481
 11, 1, 76, S1-15.jpg, 1, 0.70, 184, 1, 1, 2.4548, 2.4556
 11, 1, 77, S2-19.jpg, 2, 0.80, 127, 1, 0, 1.6974, 1.6982
 11, 1, 78, S2-19.jpg, 2, 0.71, 136, 1, 0, 1.8196, 1.8209
 11, 1, 79, S2-19.jpg, 2, 0.81, 155, 2, 1, 2.0657, 2.0665
 11, 1, 80, S1-15.jpg, 1, 0.69, 202, 2, 0, 2.6998, 2.7008
 11, 1, 81, S2-19.jpg, 2, 0.80, 316, 2, 1, 4.2113, 4.2123
 11, 1, 82, S2-19.jpg, 2, 0.71, 95, 2, 1, 1.2818, 1.2825
 11, 1, 83, S1-15.jpg, 1, 0.82, 147, 1, 1, 1.9671, 1.9680
 11, 1, 84, S1-15.jpg, 1, 0.70, 100, 1, 1, 1.3361, 1.3375
 11, 1, 85, S1-15.jpg, 1, 0.82, 164, 1, 1, 2.1827, 2.1836
 11, 1, 86, S2-19.jpg, 2, 0.71, 124, 1, 0, 1.6557, 1.6565
 11, 1, 87, S2-19.jpg, 2, 0.80, 170, 2, 1, 2.2731, 2.2739
 11, 1, 88, S2-19.jpg, 2, 0.72, 186, 2, 1, 2.4976, 2.4984
 11, 1, 89, S2-19.jpg, 2, 0.80, 292, 2, 1, 3.9132, 3.9139
 11, 1, 90, S2-19.jpg, 2, 0.72, 75, 1, 0, 1.0207, 1.0214
 11, 1, 91, S1-15.jpg, 1, 0.82, 92, 1, 1, 1.2342, 1.2349
 11, 1, 92, S1-15.jpg, 1, 0.70, 229, 1, 1, 3.0601, 3.0610
 11, 1, 93, S1-15.jpg, 1, 0.81, 211, 2, 0, 2.8190, 2.8198
 11, 1, 94, S1-15.jpg, 1, 0.70, 321, 1, 1, 4.2857, 4.2872
 11, 1, 95, S1-15.jpg, 1, 0.82, 174, 2, 0, 2.3274, 2.3282
 11, 1, 96, S2-19.jpg, 2, 0.72, 160, 2, 1, 2.1378, 2.1385
 11, 1, 97, S2-19.jpg, 2, 0.79, 482, 1, 0, 6.4312, 6.4320
 11, 1, 98, S2-19.jpg, 2, 0.72, 226, 1, 0, 3.0188, 3.0198
 11, 1, 99, S2-19.jpg, 2, 0.80, 151, 2, 1, 2.0113, 2.0122
 11, 1, 100, S2-19.jpg, 2, 0.72, 189, 2, 1, 2.5193, 2.5207