subID,block,trial,targetImg,targetIdx,cue_rgb,cue_string,congruent,respFrame,response,accuracy,RT,confResp,confRT,flickerDuration,noise1frames,signal1frames,noise2frames,coherence,catch_trial
24,1,1, S4-20.jpg,2, [10 240 94], green,1,115,1,0,2.0844,1,1.2373,2.0997,79,78,106,0.5537,0
24,1,2, S3-12.jpg,1, [181 10 240], purple,1,141,2,0,2.5244,4,1.8376,2.5254,89,35,81,0.6764,0
24,1,3, S3-12.jpg,1, [181 10 240], purple,1,160,2,0,2.811,4,0.3225,2.8118,84,32,111,0.6764,0
24,1,4, S4-20.jpg,2, [10 240 94], green,1,198,2,1,3.5286,4,0.6856,3.5294,82,43,79,0.5537,0
24,1,5, S4-20.jpg,2, [181 10 240], purple,0,217,2,1,3.8742,4,0.2055,3.8751,103,42,94,0.5537,1
24,1,6, S4-20.jpg,2, [10 240 94], green,1,150,1,0,2.7054,4,0.2719,2.7064,81,24,84,0.5537,0
24,1,7, S4-20.jpg,2, [10 240 94], green,1,153,2,1,2.7125,4,0.1751,2.7135,81,59,79,0.5537,0
24,1,8, S4-20.jpg,2, [181 10 240], purple,0,222,2,1,3.9256,4,0.2665,3.9267,82,25,82,0.5537,0
24,1,9, S4-20.jpg,2, [10 240 94], green,1,146,2,1,2.5853,4,0.2067,2.586,86,37,115,0.5537,1
24,1,10, S3-12.jpg,1, [181 10 240], purple,1,178,2,0,3.1263,4,0.1611,3.1272,90,58,83,0.6764,0
24,1,11, S4-20.jpg,2, [240 168 10], orange, NaN,154,2,1,2.7799,4,0.2244,2.7806,111,44,90,0.5537,0
24,1,12, S4-20.jpg,2, [240 168 10], orange, NaN,126,2,1,2.2329,4,0.2355,2.2338,77,29,106,0.5537,0
24,1,13, S4-20.jpg,2, [181 10 240], purple,0,147,2,1,2.6363,4,0.0146,2.6377,93,84,87,0.5537,0
24,1,14, S3-12.jpg,1, [181 10 240], purple,1,51,1,1,0.9056,1,0.871,0.9063,82,27,76,0.6764,0
24,1,15, S4-20.jpg,2, [10 240 94], green,1,159,2,1,2.86,4,0.2,2.8611,85,27,111,0.5537,0
24,1,16, S4-20.jpg,2, [10 240 94], green,1,114,2,1,2.0068,4,0.1901,2.0078,89,50,99,0.5537,0
24,1,17, S4-20.jpg,2, [10 240 94], green,1,76,1,0,1.3641,2,0.461,1.365,100,41,85,0.5537,0
24,1,18, S3-12.jpg,1, [240 168 10], orange, NaN,281,2,0,4.9388,4,0.1007,4.9398,92,37,89,0.6764,0
24,1,19, S3-12.jpg,1, [181 10 240], purple,1,118,2,0,2.0854,4,0.2276,2.0871,78,61,84,0.6764,0
24,1,20, S4-20.jpg,2, [10 240 94], green,1,95,2,1,1.664,4,0.0002,1.6648,91,32,79,0.5537,0
24,1,21, S4-20.jpg,2, [10 240 94], green,1,157,2,1,2.7889,3,0.7332,2.7898,78,38,96,0.5537,0
24,1,22, S4-20.jpg,2, [10 240 94], green,1,138,2,1,2.4058,4,0.2942,2.4069,76,29,77,0.5537,0
24,1,23, S3-12.jpg,1, [181 10 240], purple,1,300,2,0,5.1762,4,0.2173,5.1771,78,28,99,0.6764,0
24,1,24, S4-20.jpg,2, [10 240 94], green,1,60,1,0,1.0809,4,1.028,1.0816,81,55,91,0.5537,1
24,1,25, S4-20.jpg,2, [240 168 10], orange, NaN,46,1,0,0.8358,4,0.0038,0.8367,82,56,91,0.5537,0
24,1,26, S4-20.jpg,2, [10 240 94], green,1,57,1,0,0.9741,4,0.1977,0.9751,98,47,98,0.5537,1
24,1,27, S4-20.jpg,2, [10 240 94], green,1,87,1,0,1.5315,4,0.1742,1.5324,95,30,81,0.5537,1
24,1,28, S4-20.jpg,2, [10 240 94], green,1,96,1,0,1.717,2,0.592,1.718,85,30,102,0.5537,0
24,1,29, S3-12.jpg,1, [181 10 240], purple,1,105,2,0,1.9074,4,0.8271,1.9081,93,43,138,0.6764,0
24,1,30, S4-20.jpg,2, [181 10 240], purple,0,333,2,1,5.8806,4,0.1822,5.8855,97,28,136,0.5537,0
24,1,31, S3-12.jpg,1, [10 240 94], green,0,80,1,1,1.381,4,0.2149,1.3825,102,55,77,0.6764,0
24,1,32, S3-12.jpg,1, [181 10 240], purple,1,71,1,1,1.2798,4,0.1756,1.2805,79,57,116,0.6764,0
24,1,33, S3-12.jpg,1, [181 10 240], purple,1,98,1,1,1.7742,4,0.3914,1.7749,107,26,104,0.6764,1
24,1,34, S3-12.jpg,1, [181 10 240], purple,1,139,2,0,2.4594,4,0.1725,2.4608,88,24,78,0.6764,0
24,1,35, S4-20.jpg,2, [10 240 94], green,1,130,2,1,2.3121,4,0.079,2.313,90,39,103,0.5537,0
24,1,36, S3-12.jpg,1, [10 240 94], green,0,63,2,0,1.1563,4,0.1478,1.1571,99,45,75,0.6764,0
24,1,37, S3-12.jpg,1, [181 10 240], purple,1,124,2,0,2.1849,4,0.0214,2.1857,78,70,80,0.6764,0
24,1,38, S3-12.jpg,1, [181 10 240], purple,1,127,2,0,2.2487,4,0.1858,2.2495,84,51,87,0.6764,0
24,1,39, S4-20.jpg,2, [181 10 240], purple,0,136,2,1,2.4522,4,0.1346,2.453,87,40,79,0.5537,0
24,1,40, S4-20.jpg,2, [10 240 94], green,1,127,2,1,2.181,2,0.3449,2.182,79,24,81,0.5537,0
24,1,41, S3-12.jpg,1, [181 10 240], purple,1,143,2,0,2.5834,4,0.0988,2.5842,87,67,108,0.6764,1
24,1,42, S3-12.jpg,1, [240 168 10], orange, NaN,116,2,0,2.0194,3,0.3402,2.0204,80,24,83,0.6764,0
24,1,43, S3-12.jpg,1, [181 10 240], purple,1,192,2,0,3.2981,2,0.729,3.2989,100,29,86,0.6764,0
24,1,44, S4-20.jpg,2, [10 240 94], green,1,156,2,1,2.6886,4,0.0872,2.6894,86,63,77,0.5537,0
24,1,45, S3-12.jpg,1, [181 10 240], purple,1,202,2,0,3.6363,1,0.2972,3.6372,105,32,90,0.6764,0
24,1,46, S3-12.jpg,1, [240 168 10], orange, NaN,208,2,0,3.6683,1,0.321,3.6692,110,30,79,0.6764,0
24,1,47, S3-12.jpg,1, [10 240 94], green,0,129,2,0,2.2574,3,0.3212,2.2583,101,143,83,0.6764,1
24,1,48, S4-20.jpg,2, [10 240 94], green,1,149,1,0,2.6616,1,0.3452,2.6624,85,27,133,0.5537,0
24,1,49, S4-20.jpg,2, [10 240 94], green,1,123,1,0,2.2127,2,0.5437,2.2135,97,36,78,0.5537,0
24,1,50, S3-12.jpg,1, [181 10 240], purple,1,240,1,1,4.3124,3,0.8012,4.3134,81,71,85,0.6764,0
24,1,51, S4-20.jpg,2, [240 168 10], orange, NaN,190,2,1,3.3276,3,0.338,3.3284,84,35,85,0.5537,0
24,1,52, S3-12.jpg,1, [181 10 240], purple,1,125,1,1,2.2507,1,0.0261,2.2515,131,31,82,0.6764,0
24,1,53, S3-12.jpg,1, [181 10 240], purple,1,93,1,1,1.6749,2,0.2761,1.6759,138,25,75,0.6764,0
24,1,54, S3-12.jpg,1, [181 10 240], purple,1,137,1,1,2.4129,1,0.5593,2.4139,107,69,97,0.6764,0
24,1,55, S3-12.jpg,1, [181 10 240], purple,1,127,2,0,2.253,2,0.1888,2.2541,101,23,195,0.6764,0
24,1,56, S4-20.jpg,2, [181 10 240], purple,0,113,1,0,2.0123,1,0.162,2.0131,142,30,127,0.5537,0
24,1,57, S4-20.jpg,2, [10 240 94], green,1,137,1,0,2.4577,1,0.3659,2.4584,93,28,100,0.5537,0
24,1,58, S3-12.jpg,1, [10 240 94], green,0,123,2,0,2.1564,2,0.5036,2.1574,77,48,97,0.6764,0
24,1,59, S3-12.jpg,1, [10 240 94], green,0,116,2,0,2.0526,1,0.1997,2.054,84,24,81,0.6764,0
24,1,60, S3-12.jpg,1, [181 10 240], purple,1,146,2,0,2.6035,3,0.3738,2.6044,94,49,102,0.6764,0
24,1,61, S4-20.jpg,2, [240 168 10], orange, NaN,196,2,1,3.3669,1,0.3323,3.3678,83,42,79,0.5537,0
24,1,62, S3-12.jpg,1, [181 10 240], purple,1,129,2,0,2.2553,3,0.1154,2.256,76,82,96,0.6764,1
24,1,63, S4-20.jpg,2, [10 240 94], green,1,139,2,1,2.437,3,0.2832,2.4378,83,51,91,0.5537,0
24,1,64, S3-12.jpg,1, [181 10 240], purple,1,157,1,1,2.7542,1,0.7117,2.7551,109,37,95,0.6764,0
24,1,65, S4-20.jpg,2, [10 240 94], green,1,139,2,1,2.4851,3,0.1103,2.4861,90,79,93,0.5537,0
24,1,66, S3-12.jpg,1, [240 168 10], orange, NaN,233,1,1,4.0785,2,0.3012,4.0795,87,33,140,0.6764,0
24,1,67, S4-20.jpg,2, [10 240 94], green,1,137,1,0,2.4499,2,0.2544,2.4508,127,50,77,0.5537,0
24,1,68, S3-12.jpg,1, [181 10 240], purple,1,185,1,1,3.253,1,0.1048,3.254,106,30,129,0.6764,0
24,1,69, S4-20.jpg,2, [10 240 94], green,1,139,2,1,2.5114,2,0.5105,2.5128,78,45,76,0.5537,0
24,1,70, S4-20.jpg,2, [10 240 94], green,1,227,2,1,4.0208,1,0.3277,4.0217,104,56,105,0.5537,0
24,1,71, S4-20.jpg,2, [10 240 94], green,1,122,1,0,2.1734,1,0.4748,2.1744,102,38,81,0.5537,0
24,1,72, S4-20.jpg,2, [10 240 94], green,1,172,2,1,3.0807,1,0.2274,3.0814,119,24,107,0.5537,0
24,1,73, S4-20.jpg,2, [181 10 240], purple,0,139,2,1,2.4544,3,0.7269,2.4553,82,41,143,0.5537,1
24,1,74, S4-20.jpg,2, [10 240 94], green,1,151,1,0,2.6926,1,0.0911,2.6936,116,29,90,0.5537,0
24,1,75, S3-12.jpg,1, [181 10 240], purple,1,136,2,0,2.3433,3,0.0805,2.3442,85,54,109,0.6764,0
24,1,76, S3-12.jpg,1, [181 10 240], purple,1,149,2,0,2.6052,3,0.2435,2.6061,88,39,93,0.6764,0
24,1,77, S3-12.jpg,1, [240 168 10], orange, NaN,197,1,1,3.5188,1,0.0271,3.5196,87,32,93,0.6764,0
24,1,78, S4-20.jpg,2, [181 10 240], purple,0,158,1,0,2.8409,3,0.807,2.8418,99,33,80,0.5537,0
24,1,79, S4-20.jpg,2, [240 168 10], orange, NaN,198,1,0,3.5379,1,0.2079,3.5387,84,34,101,0.5537,0
24,1,80, S4-20.jpg,2, [10 240 94], green,1,162,2,1,2.8863,2,0.7887,2.8874,76,34,76,0.5537,0
24,1,81, S4-20.jpg,2, [240 168 10], orange, NaN,161,2,1,2.7765,4,0.6859,2.7778,100,44,110,0.5537,0
24,1,82, S4-20.jpg,2, [10 240 94], green,1,138,1,0,2.4505,1,0.2081,2.4514,76,26,126,0.5537,0
24,1,83, S4-20.jpg,2, [10 240 94], green,1,168,1,0,2.9967,1,0.1904,2.9977,112,34,86,0.5537,0
24,1,84, S3-12.jpg,1, [240 168 10], orange, NaN,63,1,1,1.1275,1,0.0002,1.1283,104,33,78,0.6764,0
24,1,85, S3-12.jpg,1, [181 10 240], purple,1,73,1,1,1.2942,1,0.0814,1.2951,98,28,97,0.6764,0
24,1,86, S3-12.jpg,1, [181 10 240], purple,1,59,1,1,1.0866,1,0.2158,1.0878,77,91,76,0.6764,1
24,1,87, S3-12.jpg,1, [181 10 240], purple,1,155,1,1,2.7213,3,0.3534,2.7222,97,63,82,0.6764,0
24,1,88, S4-20.jpg,2, [10 240 94], green,1,148,2,1,2.6702,3,0.1499,2.671,103,43,85,0.5537,0
24,1,89, S3-12.jpg,1, [240 168 10], orange, NaN,95,1,1,1.7345,3,0.1688,1.7354,105,27,94,0.6764,1
24,1,90, S4-20.jpg,2, [10 240 94], green,1,115,1,0,2.0233,2,0.2147,2.0242,80,43,80,0.5537,0
24,1,91, S4-20.jpg,2, [240 168 10], orange, NaN,206,2,1,3.5908,1,0.0214,3.592,99,26,82,0.5537,0
24,1,92, S4-20.jpg,2, [181 10 240], purple,0,304,1,0,5.3616,3,0.9009,5.3625,97,41,75,0.5537,0
24,1,93, S3-12.jpg,1, [181 10 240], purple,1,125,1,1,2.2333,4,0.415,2.2341,88,47,97,0.6764,0
24,1,94, S4-20.jpg,2, [10 240 94], green,1,199,2,1,3.5303,3,0.4305,3.531,78,24,120,0.5537,0
24,1,95, S4-20.jpg,2, [10 240 94], green,1,133,1,0,2.3503,3,0.5261,2.3517,75,52,124,0.5537,1
24,1,96, S3-12.jpg,1, [10 240 94], green,0,103,1,1,1.8164,4,0.3265,1.8173,83,31,117,0.6764,0
24,1,97, S4-20.jpg,2, [240 168 10], orange, NaN,122,2,1,2.1977,3,0.6066,2.1984,79,38,78,0.5537,0
24,1,98, S4-20.jpg,2, [181 10 240], purple,0,154,2,1,2.739,3,0.1028,2.74,96,77,101,0.5537,0
24,1,1, S4-20.jpg,2, [10 240 94], green,1, NaN, NaN,0, NaN,1,2.5274,9.2668,79,78,106,0.5537,0
24,1,2, S3-12.jpg,1, [181 10 240], purple,1,221,1,1,3.7997,1,0.2748,3.8006,89,35,81,0.6764,0
24,1,3, S3-12.jpg,1, [181 10 240], purple,1,163,1,1,2.8295,2,0.0005,2.8305,84,32,111,0.6764,0
24,1,4, S4-20.jpg,2, [10 240 94], green,1,150,1,0,2.7082,4,0.382,2.7092,82,43,79,0.5537,0
24,1,5, S4-20.jpg,2, [181 10 240], purple,0,193,1,0,3.4212,2,0.0559,3.4222,103,42,94,0.5537,1
24,1,6, S4-20.jpg,2, [10 240 94], green,1,132,1,0,2.3148,4,0.4897,2.3157,81,24,84,0.5537,0
24,1,7, S4-20.jpg,2, [10 240 94], green,1,77,1,0,1.3975,4,0.1899,1.3982,81,59,79,0.5537,0
24,1,8, S4-20.jpg,2, [181 10 240], purple,0,44,1,0,0.8483,4,0.0002,0.8494,82,25,82,0.5537,0
24,1,9, S4-20.jpg,2, [10 240 94], green,1,41,1,0,0.7778,4,0.1187,0.7788,86,37,115,0.5537,1
24,1,10, S3-12.jpg,1, [181 10 240], purple,1,54,1,1,1.0042,4,0.0002,1.0051,90,58,83,0.6764,0
24,1,11, S4-20.jpg,2, [240 168 10], orange, NaN,55,1,0,1.0276,4,0.458,1.0284,111,44,90,0.5537,0
24,1,12, S4-20.jpg,2, [240 168 10], orange, NaN,139,1,0,2.495,4,0.2453,2.4959,77,29,106,0.5537,0
24,1,13, S4-20.jpg,2, [181 10 240], purple,0,41,1,0,0.7595,4,0.1729,0.7603,93,84,87,0.5537,0
24,1,14, S3-12.jpg,1, [181 10 240], purple,1,37,1,1,0.6976,4,0.0993,0.6986,82,27,76,0.6764,0
24,1,15, S4-20.jpg,2, [10 240 94], green,1,88,1,0,1.5898,4,0.5205,1.5907,85,27,111,0.5537,0
24,1,16, S4-20.jpg,2, [10 240 94], green,1,70,1,0,1.2351,4,0.0671,1.2358,89,50,99,0.5537,0
24,1,17, S4-20.jpg,2, [10 240 94], green,1,46,1,0,0.8371,4,0.112,0.8384,100,41,85,0.5537,0
24,1,18, S3-12.jpg,1, [240 168 10], orange, NaN,168,1,1,2.9612,3,0.1433,2.962,92,37,89,0.6764,0
24,1,19, S3-12.jpg,1, [181 10 240], purple,1,36,1,1,0.7112,4,0.1966,0.7119,78,61,84,0.6764,0
24,1,20, S4-20.jpg,2, [10 240 94], green,1,36,1,0,0.6903,4,0.0727,0.6909,91,32,79,0.5537,0
24,1,21, S4-20.jpg,2, [10 240 94], green,1,39,1,0,0.7328,4,0.0003,0.7338,78,38,96,0.5537,0
24,1,22, S4-20.jpg,2, [10 240 94], green,1,39,1,0,0.7759,4,0.1533,0.7774,76,29,77,0.5537,0
24,1,23, S3-12.jpg,1, [181 10 240], purple,1,32,1,1,0.5861,4,0.0002,0.587,78,28,99,0.6764,0
24,1,24, S4-20.jpg,2, [10 240 94], green,1,44,1,0,0.8281,4,0.0024,0.8289,81,55,91,0.5537,1
24,1,25, S4-20.jpg,2, [240 168 10], orange, NaN,88,1,0,1.5507,4,0.3978,1.5516,82,56,91,0.5537,0
24,1,26, S4-20.jpg,2, [10 240 94], green,1,61,1,0,1.0892,4,0.3223,1.0901,98,47,98,0.5537,1
24,1,27, S4-20.jpg,2, [10 240 94], green,1,111,1,0,1.9439,4,0.3927,1.9449,95,30,81,0.5537,1
24,1,28, S4-20.jpg,2, [10 240 94], green,1,100,1,0,1.8279,4,0.0005,1.8294,85,30,102,0.5537,0
24,1,29, S3-12.jpg,1, [181 10 240], purple,1,48,1,1,0.9585,4,0.0241,0.9593,93,43,138,0.6764,0
24,1,30, S4-20.jpg,2, [181 10 240], purple,0,201,1,0,3.6138,4,0.3287,3.6147,97,28,136,0.5537,0
24,1,31, S3-12.jpg,1, [10 240 94], green,0,203,1,1,3.6094,4,0.4132,3.6102,102,55,77,0.6764,0
24,1,32, S3-12.jpg,1, [181 10 240], purple,1,202,2,0,3.7097,4,0.2894,3.711,79,57,116,0.6764,0
24,1,33, S3-12.jpg,1, [181 10 240], purple,1,171,1,1,3.0328,4,0.206,3.0335,107,26,104,0.6764,1
24,1,34, S3-12.jpg,1, [181 10 240], purple,1,114,1,1,2.0824,4,0.1457,2.0831,88,24,78,0.6764,0
24,1,35, S4-20.jpg,2, [10 240 94], green,1,143,1,0,2.5761,4,0.0708,2.5773,90,39,103,0.5537,0
24,1,36, S3-12.jpg,1, [10 240 94], green,0,210,1,1,3.6342,1,0.1564,3.635,99,45,75,0.6764,0
24,1,37, S3-12.jpg,1, [181 10 240], purple,1,136,1,1,2.3821,4,0.0475,2.3831,78,70,80,0.6764,0
24,1,38, S3-12.jpg,1, [181 10 240], purple,1,164,1,1,2.8897,2,0.0002,2.8904,84,51,87,0.6764,0
24,1,39, S4-20.jpg,2, [181 10 240], purple,0,146,1,0,2.5937,4,0.0522,2.5946,87,40,79,0.5537,0
24,1,40, S4-20.jpg,2, [10 240 94], green,1,257,1,0,4.534,1,0.0844,4.5348,79,24,81,0.5537,0
24,1,41, S3-12.jpg,1, [181 10 240], purple,1,86,1,1,1.6201,2,0.2251,1.6209,87,67,108,0.6764,1
24,1,42, S3-12.jpg,1, [240 168 10], orange, NaN,138,1,1,2.4632,2,0.1666,2.4645,80,24,83,0.6764,0
24,1,43, S3-12.jpg,1, [181 10 240], purple,1,148,1,1,2.6364,4,0.1686,2.6373,100,29,86,0.6764,0
24,1,44, S4-20.jpg,2, [10 240 94], green,1,148,1,0,2.7181,1,0.5904,2.7191,86,63,77,0.5537,0
24,1,45, S3-12.jpg,1, [181 10 240], purple,1,73,2,0,1.3308,4,0.7051,1.3316,105,32,90,0.6764,0
24,1,46, S3-12.jpg,1, [240 168 10], orange, NaN,127,1,1,2.2538,2,0.2523,2.2548,110,30,79,0.6764,0
24,1,47, S3-12.jpg,1, [10 240 94], green,0,143,2,0,2.5319,4,0.0002,2.5326,101,143,83,0.6764,1
24,1,48, S4-20.jpg,2, [10 240 94], green,1,90,2,1,1.7223,4,0.0002,1.7233,85,27,133,0.5537,0
24,1,49, S4-20.jpg,2, [10 240 94], green,1,91,2,1,1.6776,4,0.0303,1.6786,97,36,78,0.5537,0
24,1,50, S3-12.jpg,1, [181 10 240], purple,1,43,2,0,0.8238,4,0.0916,0.8245,81,71,85,0.6764,0
24,1,51, S4-20.jpg,2, [240 168 10], orange, NaN,63,2,1,1.1313,4,0.0747,1.132,84,35,85,0.5537,0
24,1,52, S3-12.jpg,1, [181 10 240], purple,1,112,2,0,1.9642,4,0.0572,1.9649,131,31,82,0.6764,0
24,1,53, S3-12.jpg,1, [181 10 240], purple,1,36,2,0,0.6918,4,0.036,0.6928,138,25,75,0.6764,0
24,1,54, S3-12.jpg,1, [181 10 240], purple,1,28,2,0,0.4844,4,0.1355,0.4854,107,69,97,0.6764,0
24,1,55, S3-12.jpg,1, [181 10 240], purple,1,41,2,0,0.802,2,0.0091,0.8027,101,23,195,0.6764,0
24,1,56, S4-20.jpg,2, [181 10 240], purple,0,98,2,1,1.7592,4,0.0003,1.7603,142,30,127,0.5537,0
24,1,57, S4-20.jpg,2, [10 240 94], green,1,36,2,1,0.6795,4,0.0495,0.6804,93,28,100,0.5537,0
24,1,58, S3-12.jpg,1, [10 240 94], green,0,45,2,0,0.871,4,0.2273,0.8718,77,48,97,0.6764,0
24,1,59, S3-12.jpg,1, [10 240 94], green,0,33,2,0,0.7107,2,0.1255,0.7114,84,24,81,0.6764,0
24,1,60, S3-12.jpg,1, [181 10 240], purple,1,125,2,0,2.2472,2,0.3984,2.2481,94,49,102,0.6764,0
24,1,61, S4-20.jpg,2, [240 168 10], orange, NaN,147,2,1,2.5989,4,0.3155,2.5996,83,42,79,0.5537,0
24,1,62, S3-12.jpg,1, [181 10 240], purple,1,120,2,0,2.127,4,0.2667,2.1276,76,82,96,0.6764,1
24,1,63, S4-20.jpg,2, [10 240 94], green,1,196,1,0,3.4432,2,0.2324,3.4441,83,51,91,0.5537,0
24,1,64, S3-12.jpg,1, [181 10 240], purple,1,112,2,0,1.9779,4,0.7845,1.9794,109,37,95,0.6764,0
24,1,65, S4-20.jpg,2, [10 240 94], green,1,53,2,1,0.9263,4,0.1253,0.9272,90,79,93,0.5537,0
24,1,66, S3-12.jpg,1, [240 168 10], orange, NaN,55,2,0,1.0019,4,0.0002,1.0027,87,33,140,0.6764,0
24,1,67, S4-20.jpg,2, [10 240 94], green,1,70,2,1,1.2567,4,0.0002,1.2576,127,50,77,0.5537,0
24,1,68, S3-12.jpg,1, [181 10 240], purple,1,70,2,0,1.2271,4,1.2106,1.2279,106,30,129,0.6764,0
24,1,69, S4-20.jpg,2, [10 240 94], green,1,119,2,1,2.1152,4,0.5408,2.1162,78,45,76,0.5537,0
24,1,70, S4-20.jpg,2, [10 240 94], green,1,206,1,0,3.6189,2,0.1743,3.6196,104,56,105,0.5537,0
24,1,71, S4-20.jpg,2, [10 240 94], green,1,185,1,0,3.3186,2,0.0002,3.3196,102,38,81,0.5537,0
24,1,72, S4-20.jpg,2, [10 240 94], green,1,173,1,0,2.9932,1,0.2986,2.994,119,24,107,0.5537,0
24,1,73, S4-20.jpg,2, [181 10 240], purple,0,135,2,1,2.428,4,0.1833,2.4295,82,41,143,0.5537,1
24,1,74, S4-20.jpg,2, [10 240 94], green,1,105,2,1,1.7937,4,0.0093,1.7946,116,29,90,0.5537,0
24,1,75, S3-12.jpg,1, [181 10 240], purple,1,59,2,0,1.0682,4,0.048,1.0697,85,54,109,0.6764,0
24,1,76, S3-12.jpg,1, [181 10 240], purple,1,170,1,1,2.9622,2,0.0002,2.9629,88,39,93,0.6764,0
24,1,77, S3-12.jpg,1, [240 168 10], orange, NaN,285,2,0,5.0932,4,0.0002,5.0942,87,32,93,0.6764,0
24,1,78, S4-20.jpg,2, [181 10 240], purple,0,172,2,1,3.0101,2,0.198,3.0111,99,33,80,0.5537,0
24,1,79, S4-20.jpg,2, [240 168 10], orange, NaN,229,2,1,4.0617,2,0.4438,4.0627,84,34,101,0.5537,0
24,1,80, S4-20.jpg,2, [10 240 94], green,1,61,1,0,1.0668,4,0.3348,1.0678,76,34,76,0.5537,0
24,1,81, S4-20.jpg,2, [240 168 10], orange, NaN,111,1,0,1.9921,2,0.0889,1.9931,100,44,110,0.5537,0
24,1,82, S4-20.jpg,2, [10 240 94], green,1,129,1,0,2.2879,2,0.1374,2.2887,76,26,126,0.5537,0
24,1,83, S4-20.jpg,2, [10 240 94], green,1,160,1,0,2.8727,4,0.2644,2.8735,112,34,86,0.5537,0
24,1,84, S3-12.jpg,1, [240 168 10], orange, NaN,88,1,1,1.4962,4,0.0002,1.4973,104,33,78,0.6764,0
24,1,85, S3-12.jpg,1, [181 10 240], purple,1,69,1,1,1.261,4,0.0002,1.2618,98,28,97,0.6764,0
24,1,86, S3-12.jpg,1, [181 10 240], purple,1,99,1,1,1.7602,4,0.0005,1.7611,77,91,76,0.6764,1
24,1,87, S3-12.jpg,1, [181 10 240], purple,1,116,2,0,2.0441,4,0.2301,2.0448,97,63,82,0.6764,0
24,1,88, S4-20.jpg,2, [10 240 94], green,1,209,1,0,3.7296,2,0.0003,3.7311,103,43,85,0.5537,0
24,1,89, S3-12.jpg,1, [240 168 10], orange, NaN,72,1,1,1.2591,4,0.1814,1.26,105,27,94,0.6764,1
24,1,90, S4-20.jpg,2, [10 240 94], green,1,253,2,1,4.5111,2,0.4344,4.5121,80,43,80,0.5537,0
24,1,91, S4-20.jpg,2, [240 168 10], orange, NaN,80,2,1,1.4263,3,0.0003,1.4277,99,26,82,0.5537,0
24,1,92, S4-20.jpg,2, [181 10 240], purple,0,169,2,1,3.0186,3,0.1246,3.0194,97,41,75,0.5537,0
24,1,93, S3-12.jpg,1, [181 10 240], purple,1,122,2,0,2.2013,2,0.0002,2.2028,88,47,97,0.6764,0
24,1,94, S4-20.jpg,2, [10 240 94], green,1,98,1,0,1.7273,4,0.252,1.7282,78,24,120,0.5537,0
24,1,95, S4-20.jpg,2, [10 240 94], green,1,135,2,1,2.4083,4,0.3855,2.4092,75,52,124,0.5537,1
24,1,96, S3-12.jpg,1, [10 240 94], green,0,282,2,0,5.0067,3,0.0658,5.0074,83,31,117,0.6764,0
24,1,97, S4-20.jpg,2, [240 168 10], orange, NaN,135,2,1,2.3433,3,0.2958,2.3441,79,38,78,0.5537,0
24,1,98, S4-20.jpg,2, [181 10 240], purple,0,333,2,1,5.8632,2,0.0002,5.8642,96,77,101,0.5537,0
24,1,99, S4-20.jpg,2, [240 168 10], orange, NaN,77,1,0,1.3923,1,0.4891,1.393,78,39,77,0.5537,0
24,1,100, S4-20.jpg,2, [181 10 240], purple,0,88,1,0,1.5877,1,0.0002,1.5886,81,36,83,0.5537,0
24,1,101, S3-12.jpg,1, [181 10 240], purple,1,120,1,1,2.0772,1,0.0002,2.078,126,49,123,0.6764,0
24,1,102, S3-12.jpg,1, [181 10 240], purple,1,167,1,1,2.9596,1,0.2666,2.9603,89,36,114,0.6764,0
24,1,103, S4-20.jpg,2, [240 168 10], orange, NaN,104,1,0,1.8765,2,0.1246,1.8775,108,26,96,0.5537,1
24,1,104, S4-20.jpg,2, [240 168 10], orange, NaN,105,1,0,1.9024,1,0.0002,1.9031,98,47,112,0.5537,0
24,1,105, S3-12.jpg,1, [181 10 240], purple,1,21,1,1,0.3614,1,0.0176,0.3624,75,28,108,0.6764,0
24,1,106, S4-20.jpg,2, [10 240 94], green,1,57,1,0,0.9927,1,0.0004,0.9936,80,42,82,0.5537,1
24,1,107, S3-12.jpg,1, [181 10 240], purple,1,91,1,1,1.6255,1,0.0072,1.6265,91,27,122,0.6764,0
24,1,108, S3-12.jpg,1, [10 240 94], green,0,63,1,1,1.1355,1,0.0002,1.1364,91,26,89,0.6764,0
24,1,109, S3-12.jpg,1, [10 240 94], green,0,88,1,1,1.561,1,0.0402,1.5624,92,32,79,0.6764,0
24,1,110, S4-20.jpg,2, [10 240 94], green,1,41,1,0,0.7488,1,0.0453,0.7495,118,34,110,0.5537,0
24,1,111, S3-12.jpg,1, [240 168 10], orange, NaN,90,1,1,1.6581,1,0.0002,1.6589,112,46,118,0.6764,0
24,1,112, S3-12.jpg,1, [240 168 10], orange, NaN,90,2,0,1.5774,1,0.3357,1.5783,89,30,77,0.6764,0
24,1,113, S3-12.jpg,1, [181 10 240], purple,1,35,2,0,0.6486,2,0.2068,0.6493,81,23,80,0.6764,0
24,1,114, S4-20.jpg,2, [10 240 94], green,1,83,2,1,1.5027,1,0.249,1.5036,88,40,93,0.5537,0
24,1,115, S4-20.jpg,2, [10 240 94], green,1,85,2,1,1.5089,1,0.0964,1.5097,83,29,83,0.5537,0
24,1,116, S3-12.jpg,1, [181 10 240], purple,1,70,2,0,1.2645,2,0.0328,1.2655,83,68,95,0.6764,0
24,1,117, S3-12.jpg,1, [240 168 10], orange, NaN,53,2,0,0.9621,1,0.0379,0.963,117,27,84,0.6764,0
24,1,118, S4-20.jpg,2, [240 168 10], orange, NaN,74,2,1,1.3323,1,0.3186,1.3336,76,85,99,0.5537,0
24,1,119, S4-20.jpg,2, [10 240 94], green,1,86,2,1,1.5536,1,0.162,1.5546,88,58,117,0.5537,0
24,1,120, S3-12.jpg,1, [240 168 10], orange, NaN,67,2,0,1.1876,1,0.2187,1.1883,79,31,84,0.6764,0
24,1,121, S4-20.jpg,2, [10 240 94], green,1,167,2,1,2.9663,2,0.0002,2.967,106,67,115,0.5537,0
24,1,122, S4-20.jpg,2, [181 10 240], purple,0,111,2,1,1.9605,1,0.3298,1.9615,102,31,109,0.5537,0
24,1,123, S3-12.jpg,1, [240 168 10], orange, NaN,79,1,1,1.4144,1,0.0002,1.4153,77,40,75,0.6764,0
24,1,124, S4-20.jpg,2, [240 168 10], orange, NaN,73,1,0,1.3108,1,0.0003,1.3115,77,41,102,0.5537,1
24,1,125, S3-12.jpg,1, [240 168 10], orange, NaN,113,1,1,1.9599,1,0.3636,1.9609,96,49,92,0.6764,0
24,1,126, S3-12.jpg,1, [181 10 240], purple,1,71,2,0,1.2887,1,0.192,1.2896,96,45,104,0.6764,0
24,1,127, S4-20.jpg,2, [240 168 10], orange, NaN,163,2,1,2.9192,1,0.0002,2.92,109,28,113,0.5537,0
24,1,128, S4-20.jpg,2, [181 10 240], purple,0,87,2,1,1.5275,1,0.1405,1.5285,88,44,87,0.5537,0
24,1,129, S3-12.jpg,1, [181 10 240], purple,1,90,1,1,1.5941,1,0.0003,1.5951,82,50,89,0.6764,0
24,1,130, S4-20.jpg,2, [240 168 10], orange, NaN,78,2,1,1.4254,1,0.0595,1.4262,76,25,96,0.5537,0
24,1,131, S3-12.jpg,1, [181 10 240], purple,1,68,1,1,1.1953,1,0.3506,1.1968,77,30,90,0.6764,0
24,1,132, S3-12.jpg,1, [181 10 240], purple,1,111,1,1,1.9871,2,0.2003,1.9878,86,34,119,0.6764,0
24,1,133, S4-20.jpg,2, [10 240 94], green,1,164,1,0,2.8761,1,0.2433,2.8768,92,50,91,0.5537,0
24,1,134, S3-12.jpg,1, [181 10 240], purple,1,25,1,1,0.428,2,0.2225,0.4289,79,23,131,0.6764,0
24,1,135, S3-12.jpg,1, [181 10 240], purple,1,50,1,1,0.9111,2,0.1828,0.9119,82,29,82,0.6764,0
24,1,136, S4-20.jpg,2, [181 10 240], purple,0,20,1,0,0.3324,2,0.0864,0.3331,83,26,91,0.5537,0
24,1,137, S4-20.jpg,2, [10 240 94], green,1,35,1,0,0.6279,2,0.8726,0.6286,80,49,76,0.5537,0
24,1,138, S3-12.jpg,1, [181 10 240], purple,1,34,1,1,0.6107,2,0.0188,0.6117,90,24,90,0.6764,0
24,1,139, S4-20.jpg,2, [10 240 94], green,1,25,1,0,0.4183,2,0.1034,0.4198,115,27,88,0.5537,0
24,1,140, S3-12.jpg,1, [181 10 240], purple,1,17,1,1,0.2814,2,0.1418,0.2825,80,31,103,0.6764,0
24,1,141, S3-12.jpg,1, [181 10 240], purple,1,16,1,1,0.3169,2,0.0169,0.3177,94,68,121,0.6764,0
24,1,142, S4-20.jpg,2, [240 168 10], orange, NaN,14,1,0,0.2268,2,0.0119,0.2276,114,46,75,0.5537,0
24,1,143, S3-12.jpg,1, [10 240 94], green,0,12,1,1,0.2174,2,0.0339,0.2184,136,52,76,0.6764,0
24,1,144, S3-12.jpg,1, [10 240 94], green,0,13,1,1,0.2365,2,0.0005,0.2373,92,32,112,0.6764,0
24,1,145, S4-20.jpg,2, [240 168 10], orange, NaN,16,1,0,0.2908,2,0.0002,0.2916,77,33,93,0.5537,0
24,1,1, S4-20.jpg,2, [10 240 94], green,1,82,1,0,1.447,2,0.6865,1.453,79,78,106,0.5537,0
24,1,2, S3-12.jpg,1, [181 10 240], purple,1,59,1,1,1.1649,1,0.059,1.1658,89,35,81,0.6764,0
24,1,3, S3-12.jpg,1, [181 10 240], purple,1,98,2,0,1.8183,2,0.3056,1.8197,84,32,111,0.6764,0
24,1,4, S4-20.jpg,2, [10 240 94], green,1,123,2,1,2.2204,1,0.5986,2.2215,82,43,79,0.5537,0
24,1,5, S4-20.jpg,2, [181 10 240], purple,0,172,2,1,3.0613,4,0.5261,3.0621,103,42,94,0.5537,1
24,1,6, S4-20.jpg,2, [10 240 94], green,1,128,1,0,2.2831,2,0.0002,2.2842,81,24,84,0.5537,0
24,1,7, S4-20.jpg,2, [10 240 94], green,1,200,2,1,3.4432,4,0.0005,3.4439,81,59,79,0.5537,0
24,1,8, S4-20.jpg,2, [181 10 240], purple,0,139,2,1,2.4913,4,0.0558,2.492,82,25,82,0.5537,0
24,1,9, S4-20.jpg,2, [10 240 94], green,1,144,2,1,2.504,4,0.3292,2.5047,86,37,115,0.5537,1
24,1,10, S3-12.jpg,1, [181 10 240], purple,1,96,2,0,1.7313,4,0.0697,1.7323,90,58,83,0.6764,0
24,1,11, S4-20.jpg,2, [240 168 10], orange, NaN,157,2,1,2.7904,2,0.5645,2.7913,111,44,90,0.5537,0
24,1,12, S4-20.jpg,2, [240 168 10], orange, NaN,71,1,0,1.2795,2,0.186,1.2803,77,29,106,0.5537,0
24,1,13, S4-20.jpg,2, [181 10 240], purple,0,17,2,1,0.2915,4,0.1345,0.2922,93,84,87,0.5537,0
24,1,14, S3-12.jpg,1, [181 10 240], purple,1,56,1,1,1.0261,4,0.0002,1.0268,82,27,76,0.6764,0
24,1,15, S4-20.jpg,2, [10 240 94], green,1,68,2,1,1.2106,4,0.3408,1.2117,85,27,111,0.5537,0
24,1,16, S4-20.jpg,2, [10 240 94], green,1,67,2,1,1.1985,2,0.119,1.2,89,50,99,0.5537,0
24,1,17, S4-20.jpg,2, [10 240 94], green,1,61,2,1,1.0585,3,0.0002,1.06,100,41,85,0.5537,0
24,1,18, S3-12.jpg,1, [240 168 10], orange, NaN,66,1,1,1.1777,3,0.1196,1.1792,92,37,89,0.6764,0
24,1,19, S3-12.jpg,1, [181 10 240], purple,1,64,1,1,1.1425,3,0.2047,1.1435,78,61,84,0.6764,0
24,1,20, S4-20.jpg,2, [10 240 94], green,1,46,1,0,0.8392,3,0.1936,0.8399,91,32,79,0.5537,0
24,1,21, S4-20.jpg,2, [10 240 94], green,1,70,2,1,1.2495,1,0.2799,1.2504,78,38,96,0.5537,0
24,1,22, S4-20.jpg,2, [10 240 94], green,1,102,1,0,1.8639,1,0.273,1.8646,76,29,77,0.5537,0
24,1,23, S3-12.jpg,1, [181 10 240], purple,1,65,1,1,1.1202,3,0.2721,1.1211,78,28,99,0.6764,0
24,1,24, S4-20.jpg,2, [10 240 94], green,1,54,1,0,0.9544,4,0.5833,0.9552,81,55,91,0.5537,1
24,1,25, S4-20.jpg,2, [240 168 10], orange, NaN,151,2,1,2.66,4,0.1166,2.6613,82,56,91,0.5537,0
24,1,26, S4-20.jpg,2, [10 240 94], green,1,86,1,0,1.4939,4,0.2119,1.4948,98,47,98,0.5537,1
24,1,27, S4-20.jpg,2, [10 240 94], green,1,57,1,0,1.0324,4,0.2486,1.0334,95,30,81,0.5537,1
24,1,28, S4-20.jpg,2, [10 240 94], green,1,47,1,0,0.8619,4,0.2193,0.8626,85,30,102,0.5537,0
24,1,29, S3-12.jpg,1, [181 10 240], purple,1,50,2,0,0.891,3,0.2068,0.8925,93,43,138,0.6764,0
24,1,30, S4-20.jpg,2, [181 10 240], purple,0,69,1,0,1.2536,4,0.0002,1.2544,97,28,136,0.5537,0
24,1,31, S3-12.jpg,1, [10 240 94], green,0,39,1,1,0.7095,4,0.0002,0.7104,102,55,77,0.6764,0
24,1,32, S3-12.jpg,1, [181 10 240], purple,1,46,1,1,0.7891,4,0.1901,0.7901,79,57,116,0.6764,0
24,1,33, S3-12.jpg,1, [181 10 240], purple,1,44,1,1,0.8032,4,0.2381,0.8042,107,26,104,0.6764,1
24,1,34, S3-12.jpg,1, [181 10 240], purple,1,46,1,1,0.8202,4,0.2662,0.821,88,24,78,0.6764,0
24,1,35, S4-20.jpg,2, [10 240 94], green,1,45,1,0,0.7941,4,0.0463,0.7951,90,39,103,0.5537,0
24,1,36, S3-12.jpg,1, [10 240 94], green,0,35,1,1,0.6373,4,0.1532,0.6381,99,45,75,0.6764,0
24,1,37, S3-12.jpg,1, [181 10 240], purple,1,33,1,1,0.5738,4,0.2035,0.5745,78,70,80,0.6764,0
24,1,38, S3-12.jpg,1, [181 10 240], purple,1,35,1,1,0.6249,4,0.0809,0.6256,84,51,87,0.6764,0
24,1,39, S4-20.jpg,2, [181 10 240], purple,0,31,1,0,0.5626,4,0.0002,0.5635,87,40,79,0.5537,0
24,1,40, S4-20.jpg,2, [10 240 94], green,1,45,1,0,0.8229,4,0.0002,0.8237,79,24,81,0.5537,0
24,1,41, S3-12.jpg,1, [181 10 240], purple,1,29,1,1,0.511,4,0.2062,0.5125,87,67,108,0.6764,1
24,1,42, S3-12.jpg,1, [240 168 10], orange, NaN,69,1,1,1.2208,4,0.3408,1.2217,80,24,83,0.6764,0
24,1,43, S3-12.jpg,1, [181 10 240], purple,1,44,1,1,0.7858,4,0.0155,0.7867,100,29,86,0.6764,0
24,1,44, S4-20.jpg,2, [10 240 94], green,1,38,1,0,0.7119,4,0.4412,0.7126,86,63,77,0.5537,0
24,1,45, S3-12.jpg,1, [181 10 240], purple,1,65,1,1,1.1352,3,0.5378,1.1363,105,32,90,0.6764,0
24,1,46, S3-12.jpg,1, [240 168 10], orange, NaN,134,1,1,2.4051,3,0.1558,2.406,110,30,79,0.6764,0
24,1,47, S3-12.jpg,1, [10 240 94], green,0,179,2,0,3.1536,3,0.4787,3.1547,101,143,83,0.6764,1
24,1,48, S4-20.jpg,2, [10 240 94], green,1,174,2,1,3.1135,1,0.0072,3.115,85,27,133,0.5537,0
24,1,49, S4-20.jpg,2, [10 240 94], green,1,167,2,1,2.9612,2,0.0002,2.9619,97,36,78,0.5537,0
24,1,50, S3-12.jpg,1, [181 10 240], purple,1,111,2,0,1.9939,2,0.3393,1.9948,81,71,85,0.6764,0
24,1,51, S4-20.jpg,2, [240 168 10], orange, NaN,101,2,1,1.7774,3,0.0003,1.7782,84,35,85,0.5537,0
24,1,52, S3-12.jpg,1, [181 10 240], purple,1,39,2,0,0.7111,2,0.4387,0.7121,131,31,82,0.6764,0
24,1,53, S3-12.jpg,1, [181 10 240], purple,1,23,2,0,0.4192,2,0.001,0.4202,138,25,75,0.6764,0
24,1,54, S3-12.jpg,1, [181 10 240], purple,1,13,2,0,0.2437,2,0.0003,0.2445,107,69,97,0.6764,0
24,1,55, S3-12.jpg,1, [181 10 240], purple,1,14,2,0,0.2443,2,0.0003,0.2451,101,23,195,0.6764,0
24,1,56, S4-20.jpg,2, [181 10 240], purple,0,44,2,1,0.7942,2,0.3283,0.7949,142,30,127,0.5537,0
24,1,57, S4-20.jpg,2, [10 240 94], green,1,29,2,1,0.5258,1,0.1478,0.5266,93,28,100,0.5537,0
24,1,58, S3-12.jpg,1, [10 240 94], green,0,11,2,0,0.1815,1,0.0607,0.1823,77,48,97,0.6764,0
24,1,59, S3-12.jpg,1, [10 240 94], green,0,42,1,1,0.7594,1,0.0018,0.7603,84,24,81,0.6764,0
24,1,60, S3-12.jpg,1, [181 10 240], purple,1,39,1,1,0.7028,1,0.043,0.7038,94,49,102,0.6764,0
24,1,61, S4-20.jpg,2, [240 168 10], orange, NaN,118,2,1,2.0676,2,0.2722,2.0686,83,42,79,0.5537,0
24,1,62, S3-12.jpg,1, [181 10 240], purple,1,60,2,0,1.1199,2,0.1261,1.1207,76,82,96,0.6764,1
24,1,63, S4-20.jpg,2, [10 240 94], green,1,107,2,1,1.8972,3,0.0037,1.898,83,51,91,0.5537,0
24,1,64, S3-12.jpg,1, [181 10 240], purple,1,34,2,0,0.5931,3,0.2021,0.5939,109,37,95,0.6764,0
24,1,65, S4-20.jpg,2, [10 240 94], green,1,44,2,1,0.7565,3,0.0002,0.7573,90,79,93,0.5537,0
24,1,66, S3-12.jpg,1, [240 168 10], orange, NaN,71,2,0,1.2607,3,0.0002,1.2617,87,33,140,0.6764,0
24,1,67, S4-20.jpg,2, [10 240 94], green,1,127,2,1,2.26,1,0.0002,2.2611,127,50,77,0.5537,0
24,1,68, S3-12.jpg,1, [181 10 240], purple,1,53,1,1,0.9448,1,0.0054,0.9458,106,30,129,0.6764,0
24,1,69, S4-20.jpg,2, [10 240 94], green,1,51,1,0,0.8982,1,0.3589,0.8989,78,45,76,0.5537,0
24,1,70, S4-20.jpg,2, [10 240 94], green,1,68,2,1,1.2337,1,0.0845,1.2344,104,56,105,0.5537,0
24,1,71, S4-20.jpg,2, [10 240 94], green,1,19,1,0,0.3335,1,0.074,0.3345,102,38,81,0.5537,0
24,1,72, S4-20.jpg,2, [10 240 94], green,1,68,1,0,1.1924,2,0.2065,1.1932,119,24,107,0.5537,0
24,1,73, S4-20.jpg,2, [181 10 240], purple,0,27,1,0,0.4719,3,0.0968,0.4727,82,41,143,0.5537,1
24,1,74, S4-20.jpg,2, [10 240 94], green,1,25,1,0,0.4488,3,0.2091,0.4495,116,29,90,0.5537,0
24,1,75, S3-12.jpg,1, [181 10 240], purple,1,85,1,1,1.5518,3,0.4963,1.5526,85,54,109,0.6764,0
24,1,76, S3-12.jpg,1, [181 10 240], purple,1,47,1,1,0.894,3,0.1897,0.8948,88,39,93,0.6764,0
24,1,77, S3-12.jpg,1, [240 168 10], orange, NaN,44,1,1,0.7939,4,0.0528,0.7947,87,32,93,0.6764,0
24,1,78, S4-20.jpg,2, [181 10 240], purple,0,25,1,0,0.4357,4,0.1267,0.4365,99,33,80,0.5537,0
24,1,79, S4-20.jpg,2, [240 168 10], orange, NaN,34,1,0,0.6319,4,0.0002,0.6327,84,34,101,0.5537,0
24,1,80, S4-20.jpg,2, [10 240 94], green,1,23,1,0,0.3946,4,0.0003,0.3959,76,34,76,0.5537,0
24,1,81, S4-20.jpg,2, [240 168 10], orange, NaN,24,1,0,0.42,4,0.0338,0.4207,100,44,110,0.5537,0
24,1,82, S4-20.jpg,2, [10 240 94], green,1,72,1,0,1.2657,4,0.0068,1.2666,76,26,126,0.5537,0
24,1,83, S4-20.jpg,2, [10 240 94], green,1,25,1,0,0.4377,4,0.0951,0.4386,112,34,86,0.5537,0
24,1,84, S3-12.jpg,1, [240 168 10], orange, NaN,19,1,1,0.3373,4,0.1557,0.3382,104,33,78,0.6764,0
24,1,85, S3-12.jpg,1, [181 10 240], purple,1,39,1,1,0.7132,4,0.0635,0.7142,98,28,97,0.6764,0
24,1,86, S3-12.jpg,1, [181 10 240], purple,1,38,1,1,0.689,4,0.1351,0.6899,77,91,76,0.6764,1
24,1,87, S3-12.jpg,1, [181 10 240], purple,1,25,1,1,0.4239,4,0.0002,0.4247,97,63,82,0.6764,0
24,1,88, S4-20.jpg,2, [10 240 94], green,1,28,1,0,0.4945,4,0.4661,0.4959,103,43,85,0.5537,0
24,1,89, S3-12.jpg,1, [240 168 10], orange, NaN,30,1,1,0.4944,4,0.1697,0.4952,105,27,94,0.6764,1
24,1,90, S4-20.jpg,2, [10 240 94], green,1,35,1,0,0.6364,4,0.263,0.6371,80,43,80,0.5537,0
24,1,91, S4-20.jpg,2, [240 168 10], orange, NaN,41,1,0,0.7278,4,0.0003,0.7287,99,26,82,0.5537,0
24,1,92, S4-20.jpg,2, [181 10 240], purple,0,45,1,0,0.8765,4,0.3604,0.8772,97,41,75,0.5537,0
24,1,93, S3-12.jpg,1, [181 10 240], purple,1,29,1,1,0.4983,4,0.0031,0.4991,88,47,97,0.6764,0
24,1,94, S4-20.jpg,2, [10 240 94], green,1,15,1,0,0.2476,4,0.0003,0.2485,78,24,120,0.5537,0
24,1,95, S4-20.jpg,2, [10 240 94], green,1,22,1,0,0.3776,4,0.0775,0.3786,75,52,124,0.5537,1
24,1,96, S3-12.jpg,1, [10 240 94], green,0,18,1,1,0.3076,4,0.0002,0.3085,83,31,117,0.6764,0
24,1,97, S4-20.jpg,2, [240 168 10], orange, NaN,21,1,0,0.3444,4,0.0918,0.3454,79,38,78,0.5537,0
24,1,98, S4-20.jpg,2, [181 10 240], purple,0,22,1,0,0.3784,4,0.1596,0.3793,96,77,101,0.5537,0
24,1,99, S4-20.jpg,2, [240 168 10], orange, NaN,23,1,0,0.3913,2,0.1678,0.3922,78,39,77,0.5537,0
24,1,100, S4-20.jpg,2, [181 10 240], purple,0,48,1,0,0.8343,3,0.102,0.835,81,36,83,0.5537,0
24,1,101, S3-12.jpg,1, [181 10 240], purple,1,41,1,1,0.7721,3,0.032,0.7728,126,49,123,0.6764,0
24,1,102, S3-12.jpg,1, [181 10 240], purple,1,27,1,1,0.4937,3,0.0002,0.4945,89,36,114,0.6764,0
24,1,103, S4-20.jpg,2, [240 168 10], orange, NaN,21,1,0,0.3611,1,0.0082,0.362,108,26,96,0.5537,1
24,1,104, S4-20.jpg,2, [240 168 10], orange, NaN,43,1,0,0.75,2,0.0003,0.7507,98,47,112,0.5537,0
24,1,105, S3-12.jpg,1, [181 10 240], purple,1,48,1,1,0.8445,2,0.0003,0.8455,75,28,108,0.6764,0
24,1,106, S4-20.jpg,2, [10 240 94], green,1,27,1,0,0.4946,2,0.0064,0.4953,80,42,82,0.5537,1
24,1,107, S3-12.jpg,1, [181 10 240], purple,1,19,1,1,0.3247,2,0.0075,0.3255,91,27,122,0.6764,0
24,1,108, S3-12.jpg,1, [10 240 94], green,0,25,1,1,0.4758,3,0.0002,0.4766,91,26,89,0.6764,0
24,1,109, S3-12.jpg,1, [10 240 94], green,0,26,1,1,0.4857,3,0.0804,0.4864,92,32,79,0.6764,0
24,1,110, S4-20.jpg,2, [10 240 94], green,1,19,1,0,0.3426,3,0.0693,0.3434,118,34,110,0.5537,0
24,1,111, S3-12.jpg,1, [240 168 10], orange, NaN,29,1,1,0.482,3,0.3418,0.483,112,46,118,0.6764,0
24,1,112, S3-12.jpg,1, [240 168 10], orange, NaN,23,1,1,0.4023,3,0.0008,0.4031,89,30,77,0.6764,0
24,1,113, S3-12.jpg,1, [181 10 240], purple,1,26,1,1,0.4679,3,0.1133,0.4686,81,23,80,0.6764,0
24,1,114, S4-20.jpg,2, [10 240 94], green,1,25,1,0,0.4314,3,0.0002,0.4322,88,40,93,0.5537,0
24,1,115, S4-20.jpg,2, [10 240 94], green,1,37,1,0,0.6276,3,0.8306,0.6285,83,29,83,0.5537,0
24,1,116, S3-12.jpg,1, [181 10 240], purple,1,38,1,1,0.7162,4,0.1337,0.717,83,68,95,0.6764,0
24,1,117, S3-12.jpg,1, [240 168 10], orange, NaN,25,1,1,0.4134,3,0.1668,0.4144,117,27,84,0.6764,0
24,1,118, S4-20.jpg,2, [240 168 10], orange, NaN,22,1,0,0.3694,2,0.2241,0.3709,76,85,99,0.5537,0
24,1,119, S4-20.jpg,2, [10 240 94], green,1,22,1,0,0.3607,2,0.0874,0.3617,88,58,117,0.5537,0
24,1,120, S3-12.jpg,1, [240 168 10], orange, NaN,30,2,0,0.531,2,0.6369,0.532,79,31,84,0.6764,0
24,1,121, S4-20.jpg,2, [10 240 94], green,1,32,2,1,0.552,2,0.4707,0.5528,106,67,115,0.5537,0
24,1,122, S4-20.jpg,2, [181 10 240], purple,0,95,1,0,1.7155,1,0.9103,1.7169,102,31,109,0.5537,0
24,1,123, S3-12.jpg,1, [240 168 10], orange, NaN,29,1,1,0.5194,1,0.1471,0.5204,77,40,75,0.6764,0
24,1,124, S4-20.jpg,2, [240 168 10], orange, NaN,37,1,0,0.6702,1,0.3842,0.6713,77,41,102,0.5537,1
24,1,125, S3-12.jpg,1, [240 168 10], orange, NaN,40,1,1,0.7158,2,0.0016,0.7166,96,49,92,0.6764,0
24,1,126, S3-12.jpg,1, [181 10 240], purple,1,37,1,1,0.6927,2,0.0376,0.6936,96,45,104,0.6764,0
24,1,127, S4-20.jpg,2, [240 168 10], orange, NaN,36,1,0,0.6842,3,0.1596,0.6851,109,28,113,0.5537,0
24,1,128, S4-20.jpg,2, [181 10 240], purple,0,15,1,0,0.2576,3,0.0134,0.2585,88,44,87,0.5537,0
24,1,129, S3-12.jpg,1, [181 10 240], purple,1,14,1,1,0.2387,3,0.0013,0.2397,82,50,89,0.6764,0
24,1,130, S4-20.jpg,2, [240 168 10], orange, NaN,16,1,0,0.2822,1,0.3228,0.2829,76,25,96,0.5537,0
24,1,131, S3-12.jpg,1, [181 10 240], purple,1,25,1,1,0.428,1,0.4992,0.4288,77,30,90,0.6764,0
24,1,132, S3-12.jpg,1, [181 10 240], purple,1,19,1,1,0.3307,1,0.0004,0.3314,86,34,119,0.6764,0
24,1,133, S4-20.jpg,2, [10 240 94], green,1,25,1,0,0.4421,1,0.0002,0.443,92,50,91,0.5537,0
24,1,134, S3-12.jpg,1, [181 10 240], purple,1,21,1,1,0.3611,1,0.0902,0.3618,79,23,131,0.6764,0
24,1,135, S3-12.jpg,1, [181 10 240], purple,1,54,1,1,0.9379,1,0.0003,0.9387,82,29,82,0.6764,0
24,1,136, S4-20.jpg,2, [181 10 240], purple,0,22,1,0,0.387,1,0.2465,0.3877,83,26,91,0.5537,0
24,1,137, S4-20.jpg,2, [10 240 94], green,1,69,1,0,1.2652,2,0.4482,1.266,80,49,76,0.5537,0
24,1,138, S3-12.jpg,1, [181 10 240], purple,1,49,1,1,0.8704,1,0.1294,0.8712,90,24,90,0.6764,0
24,1,139, S4-20.jpg,2, [10 240 94], green,1,23,1,0,0.4051,1,0.5226,0.4058,115,27,88,0.5537,0
24,1,140, S3-12.jpg,1, [181 10 240], purple,1,21,1,1,0.3572,1,0.2131,0.358,80,31,103,0.6764,0
24,1,141, S3-12.jpg,1, [181 10 240], purple,1,16,1,1,0.2768,1,0.1837,0.2777,94,68,121,0.6764,0
24,1,142, S4-20.jpg,2, [240 168 10], orange, NaN,25,1,0,0.4326,1,0.2933,0.434,114,46,75,0.5537,0
24,1,143, S3-12.jpg,1, [10 240 94], green,0,15,1,1,0.2745,1,0.0038,0.2755,136,52,76,0.6764,0
24,1,144, S3-12.jpg,1, [10 240 94], green,0,26,1,1,0.4639,1,0.1268,0.4647,92,32,112,0.6764,0
24,1,145, S4-20.jpg,2, [240 168 10], orange, NaN,28,1,0,0.4681,1,0.0703,0.4696,77,33,93,0.5537,0
24,1,146, S4-20.jpg,2, [10 240 94], green,1,27,1,0,0.4664,1,0.5434,0.4679,95,143,92,0.5537,0
24,1,147, S3-12.jpg,1, [181 10 240], purple,1,40,1,1,0.7123,1,0.0002,0.7132,77,27,78,0.6764,0
24,1,148, S3-12.jpg,1, [240 168 10], orange, NaN,25,1,1,0.4445,1,0.0877,0.4452,103,76,94,0.6764,0
24,1,149, S3-12.jpg,1, [240 168 10], orange, NaN,16,1,1,0.2651,1,0.0877,0.2659,86,42,89,0.6764,0
24,1,150, S4-20.jpg,2, [10 240 94], green,1,15,1,0,0.2805,1,0.0002,0.2813,116,37,98,0.5537,0
24,1,151, S3-12.jpg,1, [10 240 94], green,0,52,1,1,0.9107,1,0.3209,0.9116,117,38,103,0.6764,0
24,1,152, S4-20.jpg,2, [10 240 94], green,1,39,1,0,0.6862,1,0.0002,0.6872,125,57,130,0.5537,0
24,1,153, S4-20.jpg,2, [10 240 94], green,1,40,1,0,0.7443,1,0.3203,0.7452,108,88,137,0.5537,0
24,1,154, S3-12.jpg,1, [181 10 240], purple,1,52,2,0,0.9484,1,0.0836,0.9492,108,33,89,0.6764,0
24,1,155, S3-12.jpg,1, [10 240 94], green,0,41,2,0,0.733,1,0.006,0.7339,115,62,103,0.6764,0
24,1,156, S3-12.jpg,1, [181 10 240], purple,1,27,1,1,0.4568,1,0.2376,0.4578,91,39,76,0.6764,1
24,1,157, S3-12.jpg,1, [181 10 240], purple,1,15,2,0,0.2454,1,0.005,0.2463,121,24,80,0.6764,0
24,1,158, S4-20.jpg,2, [10 240 94], green,1,25,1,0,0.4246,1,0.2135,0.4259,94,61,85,0.5537,0
24,1,159, S3-12.jpg,1, [181 10 240], purple,1,17,2,0,0.287,1,0.0065,0.2877,90,41,88,0.6764,0
24,1,160, S4-20.jpg,2, [240 168 10], orange, NaN,19,2,1,0.3381,1,0.0002,0.3389,75,25,76,0.5537,0
24,1,161, S4-20.jpg,2, [10 240 94], green,1,27,2,1,0.4776,1,0.3306,0.4784,93,36,86,0.5537,0
24,1,162, S4-20.jpg,2, [181 10 240], purple,0,28,2,1,0.4715,1,0.2964,0.4726,91,44,79,0.5537,0
24,1,163, S3-12.jpg,1, [181 10 240], purple,1,13,2,0,0.2514,1,0.1031,0.2522,80,35,76,0.6764,0
24,1,164, S4-20.jpg,2, [10 240 94], green,1,15,2,1,0.2541,2,0.1983,0.2551,105,38,79,0.5537,0
24,1,165, S3-12.jpg,1, [240 168 10], orange, NaN,14,2,0,0.2522,1,0.0653,0.253,77,28,108,0.6764,1
24,1,166, S4-20.jpg,2, [10 240 94], green,1,25,2,1,0.4348,1,0.0004,0.4356,81,35,92,0.5537,0
24,1,167, S3-12.jpg,1, [240 168 10], orange, NaN,33,2,0,0.6274,2,0.0002,0.6282,140,33,78,0.6764,0
24,1,168, S4-20.jpg,2, [240 168 10], orange, NaN,42,2,1,0.7448,1,0.0004,0.7457,93,64,99,0.5537,0
24,1,169, S4-20.jpg,2, [10 240 94], green,1,58,1,0,1.0223,1,0.2048,1.0232,85,28,84,0.5537,0
24,1,170, S4-20.jpg,2, [240 168 10], orange, NaN,91,1,0,1.6396,1,0.6095,1.6404,80,23,76,0.5537,0
24,1,171, S4-20.jpg,2, [10 240 94], green,1,70,2,1,1.2106,1,0.0947,1.2116,78,33,104,0.5537,0
24,1,172, S4-20.jpg,2, [240 168 10], orange, NaN,170,2,1,3.0724,1,0.2065,3.0732,90,48,81,0.5537,0
24,1,173, S3-12.jpg,1, [181 10 240], purple,1,95,2,0,1.6774,2,0.2328,1.6783,98,28,92,0.6764,0
24,1,174, S3-12.jpg,1, [181 10 240], purple,1,80,2,0,1.4,2,0.0058,1.4009,90,25,81,0.6764,0
24,1,175, S3-12.jpg,1, [181 10 240], purple,1,14,2,0,0.2575,2,0.0722,0.2582,77,25,100,0.6764,0
24,1,176, S3-12.jpg,1, [181 10 240], purple,1,8,2,0,0.1303,2,0.1104,0.1313,82,53,86,0.6764,0
24,1,177, S3-12.jpg,1, [10 240 94], green,0,1,2,0,0.0232,2,0.0063,0.0241,88,54,91,0.6764,0
24,1,178, S3-12.jpg,1, [10 240 94], green,0,1,2,0,0.038,2,0.0099,0.0388,91,87,94,0.6764,0
24,1,179, S3-12.jpg,1, [181 10 240], purple,1,25,2,0,0.4362,2,0.0713,0.4377,111,57,78,0.6764,0
24,1,180, S3-12.jpg,1, [10 240 94], green,0,123,2,0,2.184,1,0.2423,2.185,110,73,125,0.6764,0
24,1,181, S3-12.jpg,1, [240 168 10], orange, NaN,22,1,1,0.3813,1,0.3827,0.3823,78,59,88,0.6764,0
24,1,182, S4-20.jpg,2, [10 240 94], green,1,22,1,0,0.3921,1,0.3407,0.393,119,45,88,0.5537,1
24,1,183, S3-12.jpg,1, [181 10 240], purple,1,34,1,1,0.6333,1,0.1328,0.6341,85,34,82,0.6764,0
24,1,184, S3-12.jpg,1, [240 168 10], orange, NaN,32,1,1,0.5842,3,0.1814,0.5849,94,37,135,0.6764,0
24,1,185, S4-20.jpg,2, [181 10 240], purple,0,43,1,0,0.7875,3,0.1731,0.7883,87,51,77,0.5537,0
24,1,186, S3-12.jpg,1, [181 10 240], purple,1,39,1,1,0.7002,2,0.3998,0.701,103,47,89,0.6764,1
24,1,187, S4-20.jpg,2, [10 240 94], green,1,58,1,0,1.0107,3,0.3151,1.0114,95,86,79,0.5537,0
24,1,188, S4-20.jpg,2, [181 10 240], purple,0,56,2,1,1.0874,1,1.0962,1.0882,85,46,107,0.5537,0
24,1,189, S3-12.jpg,1, [240 168 10], orange, NaN,37,1,1,0.7052,2,0.2228,0.706,78,90,86,0.6764,0
24,1,190, S3-12.jpg,1, [181 10 240], purple,1,39,1,1,0.6966,2,0.3996,0.6973,195,53,85,0.6764,0
24,1,191, S4-20.jpg,2, [10 240 94], green,1,14,1,0,0.2411,3,0.0596,0.2421,76,35,109,0.5537,0
24,1,192, S4-20.jpg,2, [240 168 10], orange, NaN,14,1,0,0.2301,3,0.0534,0.231,78,64,105,0.5537,0
24,1,193, S4-20.jpg,2, [10 240 94], green,1,26,1,0,0.4527,2,0.5351,0.4536,95,34,97,0.5537,0
24,1,194, S3-12.jpg,1, [181 10 240], purple,1,16,1,1,0.2897,1,0.0517,0.2907,75,33,128,0.6764,0
24,1,195, S4-20.jpg,2, [10 240 94], green,1,26,1,0,0.4486,1,0.5097,0.4493,89,46,85,0.5537,0
24,1,196, S3-12.jpg,1, [181 10 240], purple,1,55,1,1,0.9982,1,0.2882,0.9989,81,26,87,0.6764,0
24,1,197, S4-20.jpg,2, [10 240 94], green,1,15,1,0,0.2703,1,0.0405,0.2718,84,25,94,0.5537,0
24,1,198, S4-20.jpg,2, [10 240 94], green,1,22,1,0,0.3604,1,0.0311,0.3614,87,25,78,0.5537,0
24,1,199, S4-20.jpg,2, [181 10 240], purple,0,27,1,0,0.4441,3,0.434,0.445,78,45,84,0.5537,0
24,1,200, S3-12.jpg,1, [181 10 240], purple,1,35,1,1,0.6333,1,0.0004,0.6347,85,27,76,0.6764,0
24,1,201, S4-20.jpg,2, [181 10 240], purple,0,15,1,0,0.2793,1,0.0168,0.2802,77,32,81,0.5537,0
24,1,202, S4-20.jpg,2, [10 240 94], green,1,14,1,0,0.2349,1,0.0767,0.2357,76,62,87,0.5537,0
24,1,203, S3-12.jpg,1, [181 10 240], purple,1,14,1,1,0.2509,1,0.0045,0.2518,129,25,82,0.6764,0
24,1,204, S4-20.jpg,2, [10 240 94], green,1,25,1,0,0.4309,1,0.0015,0.4316,86,48,106,0.5537,0
24,1,205, S4-20.jpg,2, [240 168 10], orange, NaN,4,1,0,0.0763,2,0.0126,0.0771,137,32,100,0.5537,1
24,1,206, S4-20.jpg,2, [10 240 94], green,1,11,1,0,0.2059,1,0.025,0.2066,93,38,92,0.5537,0
24,1,207, S4-20.jpg,2, [181 10 240], purple,0,71,1,0,1.2696,2,0.0098,1.2704,99,38,86,0.5537,0
24,1,208, S3-12.jpg,1, [240 168 10], orange, NaN,41,1,1,0.7063,1,0.0938,0.7077,79,28,77,0.6764,0
24,1,209, S3-12.jpg,1, [181 10 240], purple,1,35,1,1,0.6391,1,0.2215,0.6398,110,24,87,0.6764,0
24,1,210, S4-20.jpg,2, [10 240 94], green,1,39,1,0,0.7197,1,0.1343,0.7204,79,80,90,0.5537,0
24,1,211, S3-12.jpg,1, [240 168 10], orange, NaN,26,1,1,0.4475,1,0.3395,0.4485,113,31,113,0.6764,0
24,1,212, S3-12.jpg,1, [240 168 10], orange, NaN,54,1,1,0.9503,2,0.2227,0.9513,87,40,114,0.6764,0
24,1,213, S3-12.jpg,1, [181 10 240], purple,1,44,1,1,0.7957,3,0.3644,0.7965,76,55,83,0.6764,0
24,1,214, S4-20.jpg,2, [10 240 94], green,1,22,1,0,0.3921,3,0.0995,0.3928,75,28,80,0.5537,0
24,1,215, S4-20.jpg,2, [10 240 94], green,1,15,1,0,0.2443,3,0.132,0.2451,83,26,142,0.5537,0
24,1,216, S3-12.jpg,1, [181 10 240], purple,1,14,1,1,0.2516,3,0.1539,0.2525,122,29,141,0.6764,0
24,1,217, S3-12.jpg,1, [181 10 240], purple,1,25,1,1,0.4097,2,0.0662,0.4105,86,24,134,0.6764,0
24,1,218, S3-12.jpg,1, [10 240 94], green,0,10,1,1,0.1674,3,0.223,0.1684,94,75,100,0.6764,0
24,1,219, S4-20.jpg,2, [240 168 10], orange, NaN,13,1,0,0.2118,3,0.2514,0.2126,86,48,92,0.5537,0
24,1,220, S4-20.jpg,2, [10 240 94], green,1,15,1,0,0.2438,3,0.102,0.2447,87,43,101,0.5537,0
24,1,221, S3-12.jpg,1, [181 10 240], purple,1,18,1,1,0.3149,2,0.307,0.3157,195,32,86,0.6764,0
24,1,222, S3-12.jpg,1, [181 10 240], purple,1,11,1,1,0.1827,1,0.093,0.1837,82,89,81,0.6764,0
24,1,223, S4-20.jpg,2, [10 240 94], green,1,30,1,0,0.5482,1,0.5143,0.549,101,56,86,0.5537,1
24,1,224, S4-20.jpg,2, [10 240 94], green,1,30,1,0,0.5431,1,0.229,0.5439,79,27,93,0.5537,0
24,1,225, S3-12.jpg,1, [240 168 10], orange, NaN,16,1,1,0.2738,1,0.0553,0.2748,128,35,77,0.6764,1
24,1,226, S4-20.jpg,2, [10 240 94], green,1,20,1,0,0.3449,1,0.2133,0.3461,89,29,95,0.5537,0
24,1,227, S4-20.jpg,2, [10 240 94], green,1,26,1,0,0.4531,1,0.0565,0.4538,143,31,98,0.5537,0
24,1,228, S4-20.jpg,2, [181 10 240], purple,0,23,1,0,0.393,2,0.205,0.3944,77,26,88,0.5537,0
24,1,229, S3-12.jpg,1, [10 240 94], green,0,16,2,0,0.2622,1,0.0719,0.263,135,34,84,0.6764,0
24,1,230, S3-12.jpg,1, [240 168 10], orange, NaN,29,1,1,0.5113,1,0.1503,0.5122,134,25,80,0.6764,0
24,1,231, S3-12.jpg,1, [181 10 240], purple,1,16,1,1,0.2839,1,0.211,0.2848,80,66,102,0.6764,0
24,1,232, S4-20.jpg,2, [10 240 94], green,1,1,1,0,0.0228,1,0.1593,0.0239,123,44,85,0.5537,0
24,1,233, S3-12.jpg,1, [181 10 240], purple,1,1,1,1,0.0244,1,0.0002,0.0259,113,72,78,0.6764,0
24,1,234, S3-12.jpg,1, [181 10 240], purple,1,10,1,1,0.1611,1,0.1352,0.1626,104,58,77,0.6764,0
24,1,235, S4-20.jpg,2, [10 240 94], green,1,1,1,0,0.0327,1,0.0365,0.0334,100,23,76,0.5537,0
24,1,236, S3-12.jpg,1, [181 10 240], purple,1,1,1,1,0.0344,3,0.0405,0.0356,89,29,80,0.6764,0
24,1,237, S3-12.jpg,1, [181 10 240], purple,1,25,1,1,0.4372,3,0.0058,0.438,109,30,78,0.6764,0
24,1,238, S3-12.jpg,1, [10 240 94], green,0,19,1,1,0.3386,1,0.3964,0.3393,76,60,81,0.6764,0
24,1,239, S3-12.jpg,1, [181 10 240], purple,1,42,2,0,0.7706,1,0.0681,0.7717,132,30,84,0.6764,0
24,1,240, S3-12.jpg,1, [181 10 240], purple,1,74,1,1,1.2728,1,0.0002,1.2736,80,51,75,0.6764,0
24,1,241, S3-12.jpg,1, [181 10 240], purple,1,52,1,1,0.9506,1,0.381,0.9514,76,52,83,0.6764,0
24,1,242, S3-12.jpg,1, [181 10 240], purple,1,145,1,1,2.5099,1,0.0003,2.5112,79,35,77,0.6764,0
24,1,243, S3-12.jpg,1, [10 240 94], green,0,63,1,1,1.1311,1,0.0055,1.132,75,83,89,0.6764,0
24,1,244, S4-20.jpg,2, [10 240 94], green,1,10,1,0,0.176,1,0.0894,0.1769,133,26,119,0.5537,0
24,1,245, S3-12.jpg,1, [10 240 94], green,0,60,1,1,1.058,1,0.0806,1.059,97,36,110,0.6764,0
24,1,246, S3-12.jpg,1, [181 10 240], purple,1,121,2,0,2.1143,1,0.0002,2.1151,95,37,83,0.6764,1
24,1,247, S3-12.jpg,1, [10 240 94], green,0,61,2,0,1.1112,1,0.1523,1.112,83,74,139,0.6764,1
24,1,248, S3-12.jpg,1, [181 10 240], purple,1,33,2,0,0.585,1,0.0003,0.5857,118,29,88,0.6764,0
24,1,249, S3-12.jpg,1, [181 10 240], purple,1,13,2,0,0.2179,1,0.0378,0.2188,77,36,88,0.6764,1
24,1,250, S4-20.jpg,2, [10 240 94], green,1,13,2,1,0.2303,1,0.0002,0.231,120,65,82,0.5537,0
24,1,251, S4-20.jpg,2, [10 240 94], green,1,16,2,1,0.28,1,0.0097,0.2808,120,37,95,0.5537,0
24,1,252, S4-20.jpg,2, [10 240 94], green,1,27,2,1,0.4681,1,0.2307,0.4688,82,25,118,0.5537,0
24,1,253, S3-12.jpg,1, [240 168 10], orange, NaN,18,2,0,0.3132,1,0.1827,0.3141,124,24,77,0.6764,0
24,1,254, S4-20.jpg,2, [181 10 240], purple,0,37,2,1,0.6874,1,0.2008,0.6881,80,40,195,0.5537,0
24,1,255, S3-12.jpg,1, [181 10 240], purple,1,28,2,0,0.5321,1,0.0087,0.5329,79,42,83,0.6764,0
24,1,256, S3-12.jpg,1, [181 10 240], purple,1,41,2,0,0.6945,1,0.0021,0.6952,76,26,105,0.6764,0
24,1,257, S3-12.jpg,1, [240 168 10], orange, NaN,46,2,0,0.8128,2,0.0002,0.8137,84,81,132,0.6764,0
24,1,258, S3-12.jpg,1, [240 168 10], orange, NaN,29,2,0,0.5386,2,0.1928,0.5394,96,66,79,0.6764,0
24,1,259, S4-20.jpg,2, [10 240 94], green,1,31,2,1,0.5369,1,0.1937,0.5377,107,60,95,0.5537,0
24,1,260, S4-20.jpg,2, [10 240 94], green,1,29,1,0,0.5179,2,0.5865,0.5186,101,26,78,0.5537,0
24,1,261, S3-12.jpg,1, [181 10 240], purple,1,43,2,0,0.7923,2,0.1766,0.7931,141,30,96,0.6764,0
24,1,262, S4-20.jpg,2, [10 240 94], green,1,39,2,1,0.6882,1,0.0848,0.6892,81,53,107,0.5537,0
24,1,263, S3-12.jpg,1, [10 240 94], green,0,15,2,0,0.2636,1,0.0133,0.2644,96,31,84,0.6764,0
24,1,264, S3-12.jpg,1, [181 10 240], purple,1,17,2,0,0.2822,1,0.0002,0.2832,84,23,82,0.6764,0
24,1,265, S3-12.jpg,1, [181 10 240], purple,1,18,2,0,0.2938,1,0.0018,0.2945,84,27,87,0.6764,0
24,1,266, S4-20.jpg,2, [10 240 94], green,1,19,1,0,0.321,2,0.4178,0.3218,102,65,80,0.5537,0
24,1,267, S4-20.jpg,2, [10 240 94], green,1,23,1,0,0.391,1,0.2068,0.392,106,40,78,0.5537,0
24,1,268, S4-20.jpg,2, [10 240 94], green,1,19,2,1,0.3422,1,0.0002,0.3436,92,31,80,0.5537,0
24,1,269, S3-12.jpg,1, [181 10 240], purple,1,22,2,0,0.3619,1,0.0633,0.3628,80,39,87,0.6764,0
24,1,270, S4-20.jpg,2, [240 168 10], orange, NaN,14,2,1,0.2517,1,0.0025,0.2524,130,35,77,0.5537,0
24,1,271, S4-20.jpg,2, [10 240 94], green,1,30,2,1,0.5254,1,0.1444,0.5264,83,41,98,0.5537,0
24,1,272, S4-20.jpg,2, [240 168 10], orange, NaN,45,2,1,0.8017,1,0.1683,0.8027,81,39,116,0.5537,0
24,1,273, S4-20.jpg,2, [10 240 94], green,1,85,2,1,1.5069,1,0.0113,1.5076,114,25,90,0.5537,0
24,1,274, S3-12.jpg,1, [181 10 240], purple,1,38,1,1,0.7025,1,0.0202,0.7036,92,36,101,0.6764,0
24,1,275, S4-20.jpg,2, [10 240 94], green,1,44,2,1,0.8094,1,0.0002,0.8102,139,25,80,0.5537,0
24,1,276, S4-20.jpg,2, [240 168 10], orange, NaN,82,2,1,1.4774,1,0.1965,1.4784,86,54,120,0.5537,0