subID,block,trial,targetImage,targetIdx,coherence,respFrame,response,accuracy,RT,flickerDuration
 21, 1, 1, S1-15.jpg, 1, 0.63, 52, 2, 0, 0.9250, 0.9266
 21, 1, 2, S2-19.jpg, 2, 0.53, 63, 1, 0, 1.1026, 1.1034
 21, 1, 3, S2-19.jpg, 2, 0.63, 59, 2, 1, 1.0102, 1.0109
 21, 1, 4, S2-19.jpg, 2, 0.61, 64, 1, 0, 1.1274, 1.1280
 21, 1, 5, S2-19.jpg, 2, 0.60, 67, 1, 0, 1.1612, 1.1626
 21, 1, 6, S1-15.jpg, 1, 0.53, 54, 2, 0, 0.9421, 0.9428
 21, 1, 7, S1-15.jpg, 1, 0.71, 49, 2, 0, 0.8443, 0.8451
 21, 1, 8, S1-15.jpg, 1, 0.61, 77, 2, 0, 1.3273, 1.3283
 21, 1, 9, S2-19.jpg, 2, 0.68, 63, 2, 1, 1.0935, 1.0945
 21, 1, 10, S2-19.jpg, 2, 0.66, 68, 2, 1, 1.1755, 1.1765
 21, 1, 11, S1-15.jpg, 1, 0.76, 105, 1, 1, 1.8253, 1.8268
 21, 1, 12, S1-15.jpg, 1, 0.66, 70, 1, 1, 1.2415, 1.2424
 21, 1, 13, S2-19.jpg, 2, 0.66, 34, 2, 1, 0.5942, 0.5952
 21, 1, 14, S2-19.jpg, 2, 0.65, 36, 2, 1, 0.6429, 0.6437
 21, 1, 15, S1-15.jpg, 1, 0.75, 43, 1, 1, 0.7606, 0.7615
 21, 1, 16, S1-15.jpg, 1, 0.65, 51, 2, 0, 0.8603, 0.8614
 21, 1, 17, S2-19.jpg, 2, 0.63, 60, 2, 1, 1.0443, 1.0452
 21, 1, 18, S2-19.jpg, 2, 0.63, 58, 1, 0, 0.9934, 0.9944
 21, 1, 19, S2-19.jpg, 2, 0.61, 51, 1, 0, 0.8769, 0.8778
 21, 1, 20, S1-15.jpg, 1, 0.68, 61, 1, 1, 1.0604, 1.0613
 21, 1, 21, S1-15.jpg, 1, 0.73, 56, 2, 0, 0.9776, 0.9790
 21, 1, 22, S2-19.jpg, 2, 0.66, 43, 1, 0, 0.7416, 0.7425
 21, 1, 23, S2-19.jpg, 2, 0.67, 61, 2, 1, 1.0775, 1.0782
 21, 1, 24, S1-15.jpg, 1, 0.67, 60, 2, 0, 1.0274, 1.0289
 21, 1, 25, S2-19.jpg, 2, 0.64, 60, 2, 1, 1.0416, 1.0426
 21, 1, 26, S1-15.jpg, 1, 0.69, 62, 1, 1, 1.0763, 1.0771
 21, 1, 27, S1-15.jpg, 1, 0.76, 65, 2, 0, 1.1600, 1.1611
 21, 1, 28, S1-15.jpg, 1, 0.68, 61, 2, 0, 1.0583, 1.0592
 21, 1, 29, S1-15.jpg, 1, 0.79, 68, 1, 1, 1.1939, 1.1947
 21, 1, 30, S1-15.jpg, 1, 0.70, 48, 2, 0, 0.8272, 0.8280
 21, 1, 31, S2-19.jpg, 2, 0.63, 58, 1, 0, 0.9938, 0.9949
 21, 1, 32, S1-15.jpg, 1, 0.71, 36, 2, 0, 0.6266, 0.6275
 21, 1, 33, S1-15.jpg, 1, 0.78, 56, 2, 0, 0.9606, 0.9622
 21, 1, 34, S1-15.jpg, 1, 0.72, 59, 2, 0, 1.0086, 1.0093
 21, 1, 35, S1-15.jpg, 1, 0.80, 70, 2, 0, 1.2277, 1.2289
 21, 1, 36, S2-19.jpg, 2, 0.69, 69, 2, 1, 1.2257, 1.2266
 21, 1, 37, S2-19.jpg, 2, 0.67, 72, 1, 0, 1.2603, 1.2613
 21, 1, 38, S1-15.jpg, 1, 0.72, 61, 2, 0, 1.0605, 1.0613
 21, 1, 39, S1-15.jpg, 1, 0.81, 60, 2, 0, 1.0357, 1.0366
 21, 1, 40, S2-19.jpg, 2, 0.68, 48, 2, 1, 0.8145, 0.8154
 21, 1, 41, S2-19.jpg, 2, 0.71, 54, 2, 1, 0.9395, 0.9405
 21, 1, 42, S1-15.jpg, 1, 0.73, 52, 2, 0, 0.8765, 0.8773
 21, 1, 43, S2-19.jpg, 2, 0.70, 57, 1, 0, 0.9744, 0.9754
 21, 1, 44, S1-15.jpg, 1, 0.73, 56, 1, 1, 0.9661, 0.9668
 21, 1, 45, S2-19.jpg, 2, 0.73, 58, 1, 0, 0.9891, 0.9899
 21, 1, 46, S2-19.jpg, 2, 0.67, 56, 2, 1, 0.9557, 0.9566
 21, 1, 47, S1-15.jpg, 1, 0.82, 65, 2, 0, 1.1701, 1.1717
 21, 1, 48, S1-15.jpg, 1, 0.73, 63, 2, 0, 1.0855, 1.0864
 21, 1, 49, S2-19.jpg, 2, 0.76, 60, 1, 0, 1.0622, 1.0630
 21, 1, 50, S2-19.jpg, 2, 0.66, 60, 2, 1, 1.0377, 1.0387
 21, 1, 51, S1-15.jpg, 1, 0.82, 62, 2, 0, 1.0697, 1.0705
 21, 1, 52, S2-19.jpg, 2, 0.66, 44, 2, 1, 0.7727, 0.7734
 21, 1, 53, S1-15.jpg, 1, 0.83, 51, 2, 0, 0.8610, 0.8617
 21, 1, 54, S2-19.jpg, 2, 0.65, 56, 2, 1, 0.9535, 0.9542
 21, 1, 55, S2-19.jpg, 2, 0.78, 53, 1, 0, 0.9083, 0.9094
 21, 1, 56, S1-15.jpg, 1, 0.73, 63, 1, 1, 1.0826, 1.0835
 21, 1, 57, S1-15.jpg, 1, 0.83, 55, 2, 0, 0.9464, 0.9479
 21, 1, 58, S2-19.jpg, 2, 0.64, 70, 1, 0, 1.2317, 1.2326
 21, 1, 59, S1-15.jpg, 1, 0.83, 54, 2, 0, 0.9240, 0.9248
 21, 1, 60, S2-19.jpg, 2, 0.66, 43, 2, 1, 0.7438, 0.7448
 21, 1, 61, S1-15.jpg, 1, 0.83, 49, 2, 0, 0.8346, 0.8353
 21, 1, 62, S2-19.jpg, 2, 0.65, 47, 2, 1, 0.8098, 0.8106
 21, 1, 63, S2-19.jpg, 2, 0.80, 60, 2, 1, 1.0438, 1.0449
 21, 1, 64, S2-19.jpg, 2, 0.64, 51, 2, 1, 0.8697, 0.8708
 21, 1, 65, S2-19.jpg, 2, 0.79, 62, 2, 1, 1.0825, 1.0833
 21, 1, 66, S2-19.jpg, 2, 0.63, 62, 2, 1, 1.0934, 1.0943
 21, 1, 67, S1-15.jpg, 1, 0.83, 47, 2, 0, 0.8109, 0.8116
 21, 1, 68, S1-15.jpg, 1, 0.73, 53, 2, 0, 0.8944, 0.8954
 21, 1, 69, S1-15.jpg, 1, 0.84, 60, 2, 0, 1.0343, 1.0350
 21, 1, 70, S2-19.jpg, 2, 0.63, 60, 2, 1, 1.0276, 1.0283
 21, 1, 71, S2-19.jpg, 2, 0.79, 60, 1, 0, 1.0273, 1.0283
 21, 1, 72, S2-19.jpg, 2, 0.62, 59, 1, 0, 1.0217, 1.0224
 21, 1, 73, S2-19.jpg, 2, 0.80, 53, 2, 1, 0.8942, 0.8950
 21, 1, 74, S1-15.jpg, 1, 0.73, 50, 2, 0, 0.8600, 0.8608
 21, 1, 75, S2-19.jpg, 2, 0.80, 42, 1, 0, 0.7266, 0.7277
 21, 1, 76, S2-19.jpg, 2, 0.64, 45, 2, 1, 0.7846, 0.7861
 21, 1, 77, S1-15.jpg, 1, 0.84, 43, 1, 1, 0.7651, 0.7660
 21, 1, 78, S1-15.jpg, 1, 0.73, 63, 2, 0, 1.1173, 1.1181
 21, 1, 79, S1-15.jpg, 1, 0.84, 69, 2, 0, 1.1941, 1.1950
 21, 1, 80, S1-15.jpg, 1, 0.73, 38, 1, 1, 0.6597, 0.6606
 21, 1, 81, S2-19.jpg, 2, 0.81, 57, 2, 1, 0.9700, 0.9709
 21, 1, 82, S2-19.jpg, 2, 0.63, 64, 1, 0, 1.1430, 1.1437
 21, 1, 83, S1-15.jpg, 1, 0.84, 62, 2, 0, 1.1080, 1.1088
 21, 1, 84, S1-15.jpg, 1, 0.73, 65, 2, 0, 1.1607, 1.1617
 21, 1, 85, S1-15.jpg, 1, 0.84, 69, 1, 1, 1.2520, 1.2527
 21, 1, 86, S2-19.jpg, 2, 0.65, 66, 2, 1, 1.2122, 1.2131
 21, 1, 87, S2-19.jpg, 2, 0.80, 55, 2, 1, 0.9433, 0.9447
 21, 1, 88, S1-15.jpg, 1, 0.74, 56, 2, 0, 0.9674, 0.9682
 21, 1, 89, S2-19.jpg, 2, 0.80, 76, 2, 1, 1.3272, 1.3279
 21, 1, 90, S1-15.jpg, 1, 0.74, 57, 1, 1, 0.9771, 0.9781
 21, 1, 91, S2-19.jpg, 2, 0.80, 45, 2, 1, 0.7696, 0.7706
 21, 1, 92, S1-15.jpg, 1, 0.74, 51, 1, 1, 0.8682, 0.8693
 21, 1, 93, S1-15.jpg, 1, 0.84, 44, 2, 0, 0.7533, 0.7540
 21, 1, 94, S2-19.jpg, 2, 0.64, 30, 1, 0, 0.5271, 0.5278
 21, 1, 95, S2-19.jpg, 2, 0.79, 25, 2, 1, 0.4112, 0.4120
 21, 1, 96, S1-15.jpg, 1, 0.74, 47, 1, 1, 0.8082, 0.8092
 21, 1, 97, S1-15.jpg, 1, 0.84, 49, 2, 0, 0.8490, 0.8497
 21, 1, 98, S2-19.jpg, 2, 0.66, 41, 1, 0, 0.7124, 0.7133
 21, 1, 99, S1-15.jpg, 1, 0.84, 42, 2, 0, 0.7227, 0.7237
 21, 1, 100, S2-19.jpg, 2, 0.67, 52, 1, 0, 0.8850, 0.8859