"subID","trial","congruent","respFrame","response","accuracy","RT","confResp","confRT","flickerDuration","coherence","catch_trial","target","noise1frames","signal1frames","noise2frames","signal1Onset","noise2Onset","signal2Onset","signal1_target1","signal1_target2","signal2_target1","signal2_target2","accuracyFactor","cueIdx","signal2frames","totalNoise","firstNoiseRT","secondNoiseRT","firstSignalRT","secondSignalRT","respPeriod","cueCongChoice","firstNoise_quartile","secondNoise_quartile","totalNoise_quartile","logRT","zlogRT","zConf","logConfRT","zlogconfRT","rt_quartile","trial_quartile"
12,1,"neutral",241,2,1,3.33,NA,NA,3.3404,0.7566,1,2,89,25,87,90,114,202,22,28,14,15,"incorrect",3,-299,176,0,0,0,1,"signal2",NA,"(81,89]",2,2,1.20297230399235,0.118500172277413,NA,NA,NA,3,1
12,2,"congruent",232,1,0,3.1873,2,0.9072,3.1883,0.7725,0,1,78,26,131,79,104,236,5,7,0,0,"correct",1,-308,209,0,1,0,0,"noise2",1,"[75,81]",4,4,1.15917416341795,0.0132763564779448,-1.3151309769011,-0.0973923460086494,0.355640245168267,2,1
12,3,"congruent",177,2,0,2.4846,3,1.1563,2.4861,0.7566,0,2,87,38,84,88,125,210,10,9,0,0,"correct",2,-363,171,0,1,0,0,"noise2",1,"(81,89]",2,2,0.91011168079744,-0.585089337821301,0.303491763900253,0.145225252152779,0.787308495715539,2,1
12,4,"congruent",150,1,0,2.0945,2,0.7691,2.0954,0.7566,0,2,78,28,80,79,106,187,5,8,0,0,"correct",2,-390,158,0,1,0,0,"noise2",0,"[75,81]",1,1,0.739314861404953,-0.995423950825245,-1.3151309769011,-0.262534278919129,0.0618176625869724,1,1
12,5,"neutral",265,1,1,3.6761,3,1.5893,3.6771,0.7725,1,2,138,25,81,139,163,245,30,14,12,6,"incorrect",3,-275,219,0,0,0,1,"signal2",NA,"(103,195]",1,4,1.30185240760548,0.356056873826075,0.303491763900253,0.463293667720637,1.35321977974023,3,1
12,6,"neutral",208,2,0,2.8794,2,1.3194,2.8802,0.7725,1,1,79,33,86,80,112,199,23,15,9,5,"correct",3,-332,165,0,0,0,1,"signal2",NA,"[75,81]",2,1,1.05758193911012,-0.230796139683524,-1.3151309769011,0.277177087806633,1.02207884413561,2,1
12,7,"incongruent",202,2,NA,2.8291,3,0.5723,2.8301,0.7725,0,1,77,52,83,78,129,213,13,13,0,0,NA,2,-338,160,0,1,0,0,"noise2",1,"[75,81]",2,1,1.03995863987427,-0.27313562643461,0.303491763900253,-0.55809194956708,-0.464042223881524,2,1
12,8,"congruent",237,2,1,3.2849,3,0.7148,3.2859,0.7566,0,2,77,26,84,78,103,188,15,23,11,14,"incorrect",2,-303,161,0,0,0,1,"signal2",1,"[75,81]",2,1,1.18933621007292,0.085739835514598,0.303491763900253,-0.335752495696864,-0.068453100062349,3,1
12,9,"incongruent",255,2,0,3.6147,2,1.2579,3.6154,0.7725,0,1,84,63,75,85,147,223,26,21,10,6,"correct",2,-285,159,0,0,0,1,"signal2",1,"(81,89]",1,1,1.2850088646152,0.315590729789474,-1.3151309769011,0.22944366386269,0.9371509421093,3,1
12,10,"congruent",222,1,0,3.0759,3,0.9587,3.0768,0.7566,1,2,127,36,113,128,163,277,14,23,2,4,"correct",2,-318,240,0,1,0,0,"noise2",0,"(103,195]",4,4,1.12359754136202,-0.0721954895156363,0.303491763900253,-0.0421770788991862,0.453879935682323,2,1
12,11,"congruent",170,1,1,2.3739,3,1.4938,2.3749,0.7566,0,2,78,23,116,79,101,218,6,5,0,0,"incorrect",2,-370,194,0,1,0,0,"noise2",0,"[75,81]",4,3,0.86453417230112,-0.694588035613467,0.303491763900253,0.401323208940829,1.24296116812339,2,1
12,12,"congruent",204,1,1,2.8419,2,0.7701,2.843,0.7566,0,2,96,27,76,97,123,200,9,7,2,1,"incorrect",2,-336,172,0,0,0,1,"signal2",0,"(89,103]",1,2,1.04447284256746,-0.262290379891248,-1.3151309769011,-0.261234902436933,0.0641295293976344,2,1
12,13,"congruent",220,2,NA,3.1492,2,0.7458,3.1499,0.7566,0,2,78,78,81,79,156,238,19,19,0,0,NA,2,-320,159,0,1,0,0,"noise2",1,"[75,81]",1,1,1.14714845232817,-0.0156150802810752,-1.3151309769011,-0.293297811237417,0.00708280296786946,2,1
12,14,"congruent",214,2,1,2.9741,3,1.1101,2.9751,0.7566,0,2,77,24,91,78,101,193,9,14,2,9,"incorrect",2,-326,168,0,0,0,1,"signal2",1,"[75,81]",3,1,1.08994147222048,-0.153053260494919,0.303491763900253,0.104450101356464,0.71476083988418,2,1
12,15,"congruent",188,1,1,2.6114,2,0.7545,2.6124,0.7725,0,1,95,50,83,96,145,229,15,10,0,0,"incorrect",1,-352,178,0,1,0,0,"noise2",1,"(89,103]",2,2,0.959886475991801,-0.465506775358622,-1.3151309769011,-0.281700000774234,0.0277177717036906,2,1
12,16,"congruent",290,2,1,4.0353,3,0.6761,4.0361,0.7566,0,2,131,88,76,132,219,296,20,24,0,0,"incorrect",2,-250,207,0,1,0,0,"noise2",1,"(103,195]",1,4,1.39508064840051,0.580035131991169,0.303491763900253,-0.391414284885505,-0.167487248217606,3,1
12,17,"congruent",134,2,1,1.8791,3,0.5422,1.8801,0.7566,0,2,80,39,127,81,119,247,9,10,0,0,"incorrect",2,-406,207,0,1,0,0,"noise2",1,"[75,81]",4,4,0.63079293881297,-1.25614485457285,0.303491763900253,-0.612120341917572,-0.560170212051205,1,1
12,18,"neutral",192,2,1,2.6836,3,0.6158,2.6846,0.7725,0,1,113,32,78,114,145,224,7,9,0,0,"incorrect",3,-348,191,0,1,0,0,"noise2",NA,"(103,195]",1,3,0.987159176706596,-0.399984869662819,0.303491763900253,-0.484833043491737,-0.333699066327432,2,1
12,19,"neutral",170,1,1,2.3654,2,0.3104,2.3661,0.7725,0,1,93,29,101,94,122,224,9,5,0,0,"incorrect",3,-370,194,0,1,0,0,"noise2",NA,"(89,103]",3,3,0.86094714083488,-0.703205779045507,-1.3151309769011,-1.16989349067307,-1.55256714100493,2,1
12,20,"neutral",280,1,1,3.9098,2,1.2857,3.9113,0.7725,0,2,130,26,90,131,156,247,15,14,10,7,"incorrect",3,-260,220,0,0,0,1,"signal2",NA,"(103,195]",3,4,1.36348622179388,0.504130399919315,-1.3151309769011,0.251303317108066,0.976043909253931,3,1
12,21,"congruent",143,1,0,2.0488,3,0.6234,2.0495,0.7725,0,1,84,35,82,85,119,202,8,9,0,0,"correct",1,-397,166,0,1,0,0,"noise2",1,"(81,89]",2,1,0.717254255903178,-1.04842394258974,0.303491763900253,-0.4725669116489,-0.311875011874233,1,1
12,22,"congruent",100,1,NA,1.4059,3,0.8163,1.4068,0.7725,0,1,77,38,78,78,115,194,6,6,0,0,NA,1,-440,155,0,0,1,0,"signal1",1,"[75,81]",1,1,0.340677667103725,-1.95313873400679,0.303491763900253,-0.202973344524827,0.167789218425401,1,1
12,23,"incongruent",51,1,NA,0.6898,3,0.6251,0.6908,0.7566,0,2,98,84,76,99,182,259,NA,NA,NA,NA,NA,1,-489,174,1,0,0,0,"noise1",1,"(89,103]",1,2,-0.371353578479397,-3.66377401774509,0.303491763900253,-0.46984364204437,-0.307029736696898,1,1
12,24,"neutral",168,2,1,2.3645,3,0.6829,2.3655,0.7725,0,1,92,32,140,93,124,265,5,10,0,0,"incorrect",3,-372,232,0,1,0,0,"noise2",NA,"(89,103]",4,4,0.860566583101793,-0.704120058425457,0.303491763900253,-0.381406843015094,-0.149681883077607,2,1
12,25,"neutral",149,2,1,2.0832,3,1.4792,2.084,0.7725,0,1,132,50,76,133,182,259,3,5,0,0,"incorrect",3,-391,208,0,0,1,0,"signal1",NA,"(103,195]",1,4,0.733905173032113,-1.0084205768329,0.303491763900253,0.391501401090778,1.22548608534303,1,1
12,26,"neutral",188,2,0,2.6559,3,1.3741,2.6566,0.7725,0,1,75,34,79,76,109,189,9,8,0,0,"correct",3,-352,154,0,1,0,0,"noise2",NA,"[75,81]",1,1,0.976783580302976,-0.424911951736759,0.303491763900253,0.317798971355592,1.09435380497274,2,1
12,27,"congruent",171,1,0,2.402,3,1.3334,2.4028,0.7725,0,1,115,57,88,116,172,261,13,15,0,0,"correct",1,-369,203,0,0,1,0,"signal1",1,"(103,195]",2,3,0.876301723657792,-0.666316820440263,0.303491763900253,0.287732071201823,1.04085840197183,2,1
12,28,"congruent",255,1,1,3.5651,3,0.709,3.566,0.7725,0,1,93,29,98,94,122,221,18,13,9,8,"incorrect",1,-285,191,0,0,0,1,"signal2",1,"(89,103]",3,3,1.27119210396374,0.282396346222764,0.303491763900253,-0.34389975245001,-0.0829488006876999,3,1
12,29,"incongruent",144,2,0,2.0353,4,1.4305,2.0361,0.7725,0,1,100,55,77,101,155,233,13,9,0,0,"correct",2,-396,177,0,0,1,0,"signal1",1,"(89,103]",1,2,0.710643228176696,-1.06430675301533,1.9221145047016,0.358024033508028,1.16592273624187,1,1
12,30,"neutral",265,1,0,3.6781,2,0.4161,3.6791,0.7566,1,2,90,91,86,91,181,268,26,37,4,5,"correct",3,-275,176,0,1,0,0,"noise2",NA,"(89,103]",2,2,1.30239631450203,0.357363595032595,-1.3151309769011,-0.876829662993241,-1.03114433098656,3,1
12,31,"congruent",141,1,1,1.9634,3,0.5593,1.9643,0.7725,0,1,102,42,116,103,144,261,13,6,0,0,"incorrect",1,-399,218,0,0,1,0,"signal1",1,"(89,103]",4,4,0.674677664276284,-1.15071302098353,0.303491763900253,-0.581069277154595,-0.50492377112755,1,1
12,32,"incongruent",178,2,0,2.5138,2,1.5205,2.5147,0.7566,0,2,80,47,104,81,127,232,13,10,0,0,"correct",1,-362,184,0,1,0,0,"noise2",0,"[75,81]",4,2,0.9217955525086,-0.5570191606714,-1.3151309769011,0.419039228135282,1.27448172998817,2,1
12,33,"congruent",176,2,1,2.441,3,0.5811,2.442,0.7566,0,2,93,26,80,94,119,200,5,8,0,0,"incorrect",2,-364,173,0,1,0,0,"noise2",1,"(89,103]",1,2,0.892407791410823,-0.627622440170405,0.303491763900253,-0.542832419901077,-0.436892278762065,2,1
12,34,"congruent",259,2,1,3.6041,3,0.4652,3.6049,0.7566,0,1,76,28,124,77,104,229,14,14,7,8,"incorrect",1,-281,200,0,0,0,1,"signal2",0,"[75,81]",4,3,1.28207208630899,0.308535201507123,0.303491763900253,-0.765287858337628,-0.832687763765339,3,1
12,35,"congruent",NA,2,0,7.849,1,1.7195,7.4651,0.7725,1,1,87,23,85,88,110,196,111,91,99,83,"correct",1,NA,172,NA,NA,NA,NA,NA,0,"(81,89]",2,2,2.06038613514468,2.17841307839324,-2.93375371770245,0.542033550890184,1.49331475996289,4,1
12,36,"congruent",212,1,0,2.9476,2,1.8596,2.949,0.7725,0,1,101,38,105,102,139,245,9,10,0,0,"correct",1,-328,206,0,1,0,0,"noise2",1,"(89,103]",4,4,1.08099127991071,-0.174555848838215,-1.3151309769011,0.620361410834293,1.63267666333433,2,1
12,37,"incongruent",169,1,1,2.3603,3,0.4031,2.3613,0.7566,0,2,80,39,77,81,119,197,14,5,0,0,"incorrect",1,-371,157,0,1,0,0,"noise2",1,"[75,81]",1,1,0.858788729602696,-0.708391302059411,0.303491763900253,-0.908570608859017,-1.08761821695537,2,1
12,38,"congruent",284,2,0,3.9458,2,1.3652,3.9473,0.7725,1,1,84,33,108,85,117,226,46,19,30,11,"correct",1,-256,192,0,0,0,1,"signal2",0,"(81,89]",4,3,1.37265172207873,0.526150259690408,-1.3151309769011,0.311300938050415,1.08279242323415,3,1
12,39,"neutral",254,1,0,3.5178,2,2.6018,3.5186,0.7725,0,1,79,35,136,80,114,251,8,11,0,2,"correct",3,-286,215,0,0,0,1,"signal2",NA,"[75,81]",4,4,1.25783579421609,0.250308183158862,-1.3151309769011,0.956203513185322,2.23021111211545,3,1
12,40,"congruent",290,2,0,4.0139,1,1.9562,4.0147,0.7566,0,2,75,28,103,76,103,207,28,28,23,19,"correct",2,-250,178,0,0,0,1,"signal2",1,"[75,81]",3,2,1.38976333725864,0.567260439714211,-2.93375371770245,0.671003815874256,1.72278026073522,3,1
12,41,"neutral",266,2,0,3.6929,3,1.1852,3.6939,0.7725,0,1,81,35,120,82,116,237,20,12,10,5,"correct",3,-274,201,0,0,0,1,"signal2",NA,"[75,81]",4,3,1.30641205724764,0.367011305401595,0.303491763900253,0.169911536717273,0.831230640486657,3,1
12,42,"congruent",315,2,1,4.3429,3,0.4705,4.3438,0.7566,1,2,76,27,94,77,103,198,32,57,25,43,"incorrect",2,-225,170,0,0,0,1,"signal2",1,"[75,81]",3,2,1.46854232772922,0.756524775446987,0.303491763900253,-0.753959319956703,-0.812531887269943,4,1
12,43,"congruent",220,1,0,3.0686,2,1.1491,3.0701,0.7725,0,1,99,34,110,100,133,244,8,9,0,0,"correct",1,-320,209,0,1,0,0,"noise2",1,"(89,103]",4,4,1.12122143152897,-0.0779040273693699,-1.3151309769011,0.138979027281451,0.776195134676753,2,1
12,44,"congruent",157,2,NA,2.1934,2,0.9166,2.1948,0.7725,0,1,80,41,85,81,121,207,10,10,0,0,NA,1,-383,165,0,1,0,0,"noise2",0,"[75,81]",2,1,0.785452851343971,-0.88457871193996,-1.3151309769011,-0.0870841069071134,0.373980792485953,1,1
12,45,"congruent",512,1,1,7.0839,2,0.7944,7.0848,0.7725,0,1,118,30,93,119,148,242,84,66,76,60,"incorrect",1,-28,211,0,0,0,1,"signal2",1,"(103,195]",3,4,1.95782460350249,1.93201184829316,-1.3151309769011,-0.230168166251174,0.119403853111766,4,1
12,46,"congruent",433,2,1,6.0199,3,0.917,6.0207,0.7566,0,1,90,31,84,91,121,206,64,65,54,60,"incorrect",1,-107,174,0,0,0,1,"signal2",0,"(89,103]",2,2,1.79507064788708,1.54099999204283,0.303491763900253,-0.0866478067256722,0.374757063199469,4,1
12,47,"neutral",368,1,1,5.0965,3,1.1011,5.0975,0.7725,0,2,84,25,120,85,109,230,46,36,39,31,"incorrect",3,-172,204,0,0,0,1,"signal2",NA,"(81,89]",4,3,1.62855402962633,1.14094844333257,0.303491763900253,0.0963096801374084,0.700277301126164,4,1
12,48,"congruent",226,2,0,3.1646,3,0.9108,3.1656,0.7566,0,2,80,57,82,81,137,220,20,12,2,2,"correct",2,-314,162,0,0,0,1,"signal2",1,"[75,81]",2,1,1.15202666530275,-0.0038953091507272,0.303491763900253,-0.0934319447925524,0.362686640307668,2,1
12,49,"congruent",288,2,1,3.9843,4,0.9658,3.9853,0.7566,0,2,77,57,114,78,134,249,21,27,9,11,"incorrect",2,-252,191,0,0,0,1,"signal2",1,"[75,81]",4,3,1.38236163809218,0.549478063122873,1.9221145047016,-0.0347985055426955,0.467007985240425,3,1
12,50,"congruent",385,1,1,5.3285,4,1.278,5.33,0.7725,0,1,79,86,107,80,165,273,51,48,32,24,"incorrect",1,-155,186,0,0,0,1,"signal2",1,"[75,81]",4,3,1.67306977267887,1.2478962791472,1.9221145047016,0.245296355955343,0.965356249201439,4,1
12,51,"congruent",375,1,0,5.2139,3,1.3095,5.215,0.7566,0,2,81,40,87,82,121,209,46,57,34,49,"correct",2,-165,168,0,0,0,1,"signal2",0,"[75,81]",2,1,1.65132813619428,1.19566260158395,0.303491763900253,0.26964538496563,1.00867834469264,4,1
12,52,"neutral",410,2,0,5.6696,2,1.3153,5.6706,0.7725,0,1,79,48,101,80,127,229,67,48,53,38,"correct",3,-130,180,0,0,0,1,"signal2",NA,"[75,81]",3,2,1.73511856851391,1.39696678711622,-1.3151309769011,0.274064776492596,1.01654138110626,4,1
12,53,"incongruent",468,1,1,6.4953,3,1.4732,6.4963,0.7725,0,1,102,37,106,103,139,246,73,57,62,50,"incorrect",2,-72,208,0,0,0,1,"signal2",0,"(89,103]",4,4,1.87107883843231,1.72360755794156,0.303491763900253,0.387436905588773,1.21825448435446,4,1
12,54,"congruent",430,2,0,6.0474,3,0.9639,6.0481,0.7725,0,1,75,30,96,76,105,202,68,62,60,55,"correct",1,-110,171,0,0,0,1,"signal2",0,"[75,81]",3,2,1.79962842760675,1.55194993118151,0.303491763900253,-0.0367677241922146,0.463504326908034,4,1
12,55,"incongruent",325,2,1,4.5734,3,0.6541,4.5742,0.7725,0,1,99,30,76,100,129,206,37,38,30,30,"incorrect",2,-215,175,0,0,0,1,"signal2",1,"(89,103]",1,2,1.52025691078286,0.880767624344599,0.303491763900253,-0.42449503401497,-0.226344928829909,4,1
12,56,"neutral",342,2,NA,4.8114,1,1.7875,4.8122,0.7725,0,1,94,33,82,95,127,210,41,42,34,33,NA,3,-198,176,0,0,0,1,"signal2",NA,"(89,103]",2,2,1.5709881020589,1.00264790182007,-2.93375371770245,0.580817995586026,1.56232052672166,4,1
12,57,"neutral",92,1,NA,1.2914,2,1.2716,1.2923,0.7725,0,1,103,41,76,104,144,221,NA,NA,NA,NA,NA,3,-448,179,1,0,0,0,"noise1",NA,"(89,103]",1,2,0.25572690121023,-2.15723058871043,-1.3151309769011,0.240275950054511,0.956423880532916,1,1
12,58,"congruent",141,2,0,1.9779,2,1.5427,1.9786,0.7566,0,2,85,43,80,86,128,209,12,9,0,0,"correct",2,-399,165,0,1,0,0,"noise2",1,"(81,89]",1,1,0.682035675805227,-1.13303560272746,-1.3151309769011,0.433534128035757,1.30027123631133,1,1
12,59,"neutral",170,1,1,2.3504,3,0.4137,2.3513,0.7725,0,1,133,34,105,134,167,273,9,8,0,0,"incorrect",3,-370,238,0,1,0,0,"noise2",NA,"(103,195]",4,4,0.854585526437476,-0.71848938087793,0.303491763900253,-0.882614205514771,-1.04143626104195,2,1
12,60,"incongruent",165,2,1,2.3104,3,0.3134,2.3114,0.7566,0,2,87,51,86,88,138,225,8,17,0,0,"incorrect",1,-375,173,0,1,0,0,"noise2",0,"(81,89]",2,2,0.83742066971637,-0.759727472225156,0.303491763900253,-1.16027494906022,-1.53545371204387,1,1
12,61,"congruent",143,2,0,2.0225,3,1.2793,2.0237,0.7566,0,2,80,24,130,81,104,235,6,5,0,0,"correct",2,-397,210,0,1,0,0,"noise2",1,"[75,81]",4,4,0.70433436995051,-1.07946360961223,0.303491763900253,0.246313053340852,0.967165169844726,1,1
12,62,"neutral",213,2,0,2.9608,3,0.6516,2.9622,0.7725,0,1,99,61,85,100,160,246,16,14,0,0,"correct",3,-327,184,0,1,0,0,"noise2",NA,"(89,103]",2,2,1.08545950208981,-0.163821069202394,0.303491763900253,-0.428324402254247,-0.233158188465965,2,1
12,63,"congruent",272,2,0,3.7641,3,0.8674,3.7651,0.7725,0,1,124,45,110,125,169,280,13,9,0,0,"correct",1,-268,234,0,1,0,0,"noise2",0,"(103,195]",4,4,1.32550878885163,0.412890672477826,0.303491763900253,-0.142255047580871,0.275819968118042,3,1
12,64,"incongruent",342,2,1,4.7632,3,0.6774,4.7641,0.7725,0,1,84,82,195,85,166,362,17,23,0,0,"incorrect",2,-198,279,0,1,0,0,"noise2",1,"(81,89]",4,4,1.56091971127937,0.978458872722313,0.303491763900253,-0.389493338598466,-0.164069476673393,4,1
12,65,"congruent",141,1,1,1.9648,3,0.5617,1.9658,0.7725,0,1,91,31,104,92,122,227,9,6,0,0,"incorrect",1,-399,195,0,1,0,0,"noise2",1,"(89,103]",4,3,0.675390458970686,-1.14900055153522,0.303491763900253,-0.57678737944375,-0.497305365422978,1,1
12,66,"congruent",108,1,NA,1.5375,3,0.6001,1.5384,0.7725,0,1,135,32,88,136,167,256,NA,NA,NA,NA,NA,1,-432,223,1,0,0,0,"noise1",1,"(103,195]",2,4,0.430157720698536,-1.73816539144691,0.303491763900253,-0.51065897098667,-0.379648877985698,1,1
12,67,"congruent",323,1,1,4.4811,3,0.9889,4.4826,0.7725,0,1,141,54,84,142,195,280,30,19,14,8,"incorrect",1,-217,225,0,0,0,1,"signal2",1,"(103,195]",2,4,1.49986855200222,0.831785158864292,0.303491763900253,-0.0111620647061919,0.509062234983137,4,1
12,68,"congruent",404,2,0,5.6112,3,0.6502,5.6123,0.7725,0,1,75,25,135,76,100,236,57,40,49,36,"correct",1,-136,210,0,0,0,1,"signal2",0,"[75,81]",4,4,1.72476460040378,1.37209166641644,0.303491763900253,-0.430475271112332,-0.236985041110464,4,1
12,69,"congruent",198,2,1,2.7443,3,0.3641,2.7451,0.7566,0,2,104,67,77,105,171,249,15,18,0,0,"incorrect",2,-342,181,0,1,0,0,"noise2",1,"(103,195]",1,2,1.00952603333367,-0.346249118078965,0.303491763900253,-1.01032672380075,-1.26866396323367,2,1
12,70,"congruent",209,1,1,2.9159,3,0.7283,2.9168,0.7566,0,2,113,61,87,114,174,262,16,14,0,0,"incorrect",2,-331,200,0,1,0,0,"noise2",0,"(103,195]",2,3,1.07017852000556,-0.200533204077989,0.303491763900253,-0.317042227758268,-0.0351635584564233,2,2
12,71,"congruent",311,1,0,4.3412,3,0.9787,4.3421,0.7566,0,2,83,33,97,84,116,214,27,38,22,27,"correct",2,-229,180,0,0,0,1,"signal2",0,"(81,89]",3,2,1.46815080758972,0.755584159190218,0.303491763900253,-0.0215301185503632,0.490615264530831,4,2
12,72,"incongruent",NA,NA,NA,NA,2,0.16,7.4629,0.7725,0,1,97,51,92,98,148,241,94,81,80,70,NA,2,NA,189,NA,NA,NA,NA,NA,NA,"(89,103]",3,3,NA,NA,-1.3151309769011,-1.83258146374831,-2.73162983127924,NA,2
12,73,"incongruent",205,2,1,2.8546,1,1.9669,2.8555,0.7725,1,1,96,75,82,97,171,254,22,28,1,2,"incorrect",2,-335,178,0,1,0,0,"noise2",1,"(89,103]",2,2,1.04893172821353,-0.251578031016622,-2.93375371770245,0.67645869927371,1.7324856571773,2,2
12,74,"neutral",254,1,1,3.5534,2,0.8439,3.5543,0.7725,0,1,86,33,142,87,119,262,10,6,0,0,"incorrect",3,-286,228,0,1,0,0,"noise2",NA,"(81,89]",4,4,1.26790489161967,0.274498909901279,-1.3151309769011,-0.169721274818216,0.226951714741015,3,2
12,75,"congruent",265,2,1,3.6902,3,0.3556,3.6915,0.7566,0,2,88,29,78,89,117,196,24,25,17,18,"incorrect",2,-275,166,0,0,0,1,"signal2",1,"(81,89]",1,1,1.30568065712564,0.365254136930433,0.303491763900253,-1.03394877534239,-1.31069261136385,3,2
12,76,"congruent",291,2,1,4.0727,3,0.7735,4.0736,0.7566,0,2,77,32,133,78,109,243,15,25,12,12,"incorrect",2,-249,210,0,0,0,1,"signal2",1,"[75,81]",4,4,1.40430617017158,0.602199191715205,0.303491763900253,-0.256829608969016,0.0719674823691146,3,2
12,77,"incongruent",367,1,1,5.123,3,2.1331,5.1243,0.7566,1,2,101,47,86,102,148,235,61,47,42,33,"incorrect",1,-173,187,0,0,0,1,"signal2",1,"(89,103]",2,3,1.63374020495707,1.15340808546688,0.303491763900253,0.757576320715635,1.87681113893025,4,2
12,78,"congruent",422,1,1,5.8545,2,0.9922,5.8554,0.7566,0,2,86,23,105,87,109,215,59,56,53,51,"incorrect",2,-118,191,0,0,0,1,"signal2",0,"(81,89]",4,3,1.76721059630664,1.47406699221185,-1.3151309769011,-0.00783057911518856,0.514989655614162,4,2
12,79,"congruent",176,2,1,2.463,1,1.3111,2.464,0.7725,0,2,91,24,101,92,115,217,2,10,0,0,"incorrect",2,-364,192,0,1,0,0,"noise2",1,"(89,103]",3,3,0.901380119138401,-0.60606667210086,-2.93375371770245,0.270866479523219,1.01085093132865,2,2
12,80,"congruent",449,2,1,6.2093,3,0.9145,6.2103,0.7566,1,2,102,31,125,103,133,259,58,75,46,62,"incorrect",2,-91,227,0,0,0,1,"signal2",1,"(89,103]",4,4,1.82604816817478,1.6154226238242,0.303491763900253,-0.0893778111512167,0.369899805344756,4,2
12,81,"neutral",319,1,1,4.4221,3,0.6018,4.4231,0.7725,0,1,79,27,195,80,106,302,12,10,5,4,"incorrect",3,-221,274,0,0,0,1,"signal2",NA,"[75,81]",4,4,1.48661469638128,0.799943138993112,0.303491763900253,-0.507830114786192,-0.374615741822601,4,2
12,82,"congruent",302,2,1,4.1994,3,0.6918,4.2002,0.7566,0,2,88,36,88,89,124,213,30,32,19,26,"incorrect",2,-238,176,0,0,0,1,"signal2",1,"(81,89]",2,2,1.43494165794141,0.675800099875767,0.303491763900253,-0.368458382479069,-0.126643820920437,3,2
12,83,"neutral",405,2,0,5.6571,3,0.6247,5.658,0.7725,0,1,82,26,117,83,108,226,53,49,48,42,"correct",3,-135,199,0,0,0,1,"signal2",NA,"(81,89]",4,3,1.73291139341885,1.39166411027666,0.303491763900253,-0.470483744482613,-0.308168614922472,4,2
12,84,"congruent",338,1,1,4.6998,2,0.9658,4.7009,0.7725,0,1,92,44,84,93,136,221,41,39,31,28,"incorrect",1,-202,176,0,0,0,1,"signal2",1,"(89,103]",2,2,1.54751995461911,0.946266329658022,-1.3151309769011,-0.0347985055426955,0.467007985240425,4,2
12,85,"congruent",369,1,1,5.1286,3,2.4456,5.13,0.7566,0,2,108,35,138,109,143,282,33,28,24,20,"incorrect",2,-171,246,0,0,0,1,"signal2",0,"(103,195]",4,4,1.63483271745404,1.15603281638543,0.303491763900253,0.894290491594488,2.12005469346016,4,2
12,86,"incongruent",228,2,0,3.1749,3,0.6081,3.1756,0.7725,0,1,84,25,82,85,109,192,16,15,12,7,"correct",2,-312,166,0,0,0,1,"signal2",1,"(81,89]",2,1,1.15527613578565,0.00391145339797546,0.303491763900253,-0.497415936856073,-0.356086706822463,2,2
12,87,"congruent",264,2,1,3.6776,1,1.4363,3.6783,0.7566,0,2,114,46,89,115,160,250,6,24,2,6,"incorrect",2,-276,203,0,0,0,1,"signal2",1,"(103,195]",2,3,1.30226036550988,0.357036981356301,-2.93375371770245,0.36207036245564,1.17312201507074,3,2
12,88,"congruent",207,1,1,2.8956,2,0.8195,2.8963,0.7725,0,1,120,26,89,121,146,236,9,3,0,0,"incorrect",1,-333,209,0,1,0,0,"noise2",1,"(103,195]",2,4,1.06319234343685,-0.217317299173534,-1.3151309769011,-0.199060880798253,0.174750322586758,2,2
12,89,"congruent",NA,2,1,7.758,1,0.674,7.4941,0.7566,0,2,89,44,75,90,133,209,83,105,71,95,"incorrect",2,NA,164,NA,NA,NA,NA,NA,1,"(81,89]",1,1,2.04872456901778,2.15039648978976,-2.93375371770245,-0.39452516806983,-0.173022170300798,4,2
12,90,"congruent",223,1,1,3.1176,3,1.0039,3.1184,0.7725,0,1,85,24,76,86,109,186,21,10,13,6,"incorrect",1,-317,161,0,0,0,1,"signal2",1,"(81,89]",1,1,1.13706347504236,-0.0398439579993301,0.303491763900253,0.00389241471534385,0.535847352155348,2,2
12,91,"neutral",284,1,1,3.9419,3,1.0939,3.9428,0.7725,0,1,77,25,84,78,102,187,36,25,29,20,"incorrect",3,-256,161,0,0,0,1,"signal2",NA,"[75,81]",2,1,1.37166284057517,0.523774499354161,0.303491763900253,0.0897492921436082,0.688604977149439,3,2
12,92,"congruent",260,1,1,3.5999,3,0.549,3.6007,0.7725,0,1,107,36,90,108,143,234,18,14,7,7,"incorrect",1,-280,197,0,0,0,1,"signal2",1,"(103,195]",3,3,1.28090606729848,0.305733873232187,0.303491763900253,-0.599656837472606,-0.537994989807571,3,2
12,93,"congruent",423,2,0,5.8811,3,0.3274,5.8821,0.7725,0,1,77,29,81,78,106,188,73,59,67,51,"correct",1,-117,158,0,0,0,1,"signal2",0,"[75,81]",1,1,1.77174381924415,1.48495793436371,0.303491763900253,-1.1165726140451,-1.45769797361531,4,2
12,94,"congruent",358,1,1,4.9703,3,0.7271,4.9712,0.7725,0,1,78,33,81,79,111,193,55,44,46,37,"incorrect",1,-182,159,0,0,0,1,"signal2",1,"[75,81]",1,1,1.60348020045985,1.080709265436,0.303491763900253,-0.318691259326126,-0.0380975359477056,4,2
12,95,"incongruent",277,2,1,3.8719,3,0.8835,3.8728,0.7725,0,1,82,80,92,83,162,255,21,29,6,5,"incorrect",2,-263,174,0,0,0,1,"signal2",1,"(81,89]",3,2,1.35374534263454,0.480728208389147,0.303491763900253,-0.123863987222386,0.308541571624208,3,2
12,96,"congruent",243,2,1,3.4032,NA,NA,3.4042,0.7725,0,1,76,50,86,77,126,213,19,20,7,8,"incorrect",1,-297,162,0,0,0,1,"signal2",0,"[75,81]",2,1,1.22471616546384,0.170739195309857,NA,NA,NA,3,2
12,97,"incongruent",375,2,0,5.2596,3,0.9185,5.2611,0.7725,0,1,83,66,80,84,149,230,56,50,37,36,"correct",2,-165,163,0,0,0,1,"signal2",1,"(81,89]",1,1,1.66005497823063,1.21662859710111,0.303491763900253,-0.0850133743269567,0.377665065667294,4,2
12,98,"neutral",404,2,0,5.6119,3,0.7823,5.6126,0.7725,0,1,90,70,92,91,160,253,59,51,42,34,"correct",3,-136,182,0,0,0,1,"signal2",NA,"(89,103]",3,2,1.72488934312208,1.37239135733119,0.303491763900253,-0.245516980291102,0.0920950521228839,4,2
12,99,"congruent",356,2,1,4.9085,3,1.4696,4.9093,0.7566,0,2,111,45,96,112,156,253,30,44,21,31,"incorrect",2,-184,207,0,0,0,1,"signal2",1,"(103,195]",3,4,1.59096839615044,1.05065000322288,0.303491763900253,0.384990254918779,1.21390137302857,4,2
12,100,"incongruent",344,2,0,4.7522,3,2.598,4.7537,0.7725,0,1,81,24,91,82,105,197,53,33,47,27,"correct",2,-196,172,0,0,0,1,"signal2",1,"[75,81]",3,2,1.55860766871678,0.972904254705729,0.303491763900253,0.954741918248408,2.22761062421099,4,2
12,101,"congruent",308,2,1,4.2411,NA,NA,4.2425,0.7566,0,2,83,30,109,84,113,223,19,39,15,28,"incorrect",2,-232,192,0,0,0,1,"signal2",1,"(81,89]",4,3,1.44482266955896,0.699538955743198,NA,NA,NA,4,2
12,102,"incongruent",423,2,1,5.8897,3,0.8918,5.8906,0.7566,0,2,100,44,117,101,144,262,50,52,36,45,"incorrect",1,-117,217,0,0,0,1,"signal2",0,"(89,103]",4,4,1.77320506258025,1.48846853087805,0.303491763900253,-0.114513386788761,0.325178276304072,4,2
12,103,"congruent",352,2,0,4.8952,3,0.5179,4.896,0.7566,0,2,88,23,89,89,111,201,45,42,39,37,"correct",2,-188,177,0,0,0,1,"signal2",1,"(81,89]",2,2,1.58825513316619,1.0441314642912,0.303491763900253,-0.657973105552291,-0.64175201984648,4,2
12,104,"incongruent",305,2,0,4.2254,3,0.5179,4.2261,0.7725,0,1,80,37,112,81,117,230,31,25,20,18,"correct",2,-235,192,0,0,0,1,"signal2",1,"[75,81]",4,3,1.441113930884,0.690628814123837,0.303491763900253,-0.657973105552291,-0.64175201984648,3,2
12,105,"congruent",410,1,1,5.6845,3,0.5627,5.6855,0.7725,0,1,85,24,89,86,109,199,64,54,58,48,"incorrect",1,-130,174,0,0,0,1,"signal2",1,"(81,89]",2,2,1.73774317258702,1.4032723254773,0.303491763900253,-0.575008652542904,-0.494140632380906,4,2
12,106,"congruent",318,2,1,4.4155,3,0.7779,4.4165,0.7566,0,2,92,24,119,93,116,236,27,26,20,22,"incorrect",2,-222,211,0,0,0,1,"signal2",1,"(89,103]",4,4,1.48512107792672,0.796354762156202,0.303491763900253,-0.251157297769409,0.0820597290595842,4,2
12,107,"neutral",261,1,1,3.6299,3,0.4714,3.6308,0.7725,0,1,143,31,109,144,174,284,10,5,0,0,"incorrect",3,-279,252,0,1,0,0,"noise2",NA,"(103,195]",4,4,1.28920509968793,0.325672067959395,0.303491763900253,-0.752048288480106,-0.80913175627988,3,2
12,108,"congruent",215,2,0,3.0117,3,0.3664,3.0124,0.7566,0,2,91,28,86,92,119,206,10,9,3,2,"correct",2,-325,177,0,0,0,1,"signal2",1,"(89,103]",2,2,1.10250470338345,-0.12287044669502,0.303491763900253,-1.00402964618216,-1.25746012435399,2,2
12,109,"congruent",291,1,1,4.0921,3,0.5358,4.0928,0.7725,0,1,95,85,82,96,180,263,29,27,7,7,"incorrect",1,-249,177,0,0,0,1,"signal2",1,"(89,103]",2,2,1.40905828571844,0.613616017279108,0.303491763900253,-0.623994321871629,-0.581296544982713,3,2
12,110,"congruent",194,1,1,2.7164,3,0.3644,2.7173,0.7566,0,2,86,48,79,87,134,214,12,11,0,0,"incorrect",2,-346,165,0,1,0,0,"noise2",0,"(81,89]",1,1,0.999307474257499,-0.370798922336999,0.303491763900253,-1.00950311359633,-1.26719858570637,2,2
12,111,"congruent",342,2,0,4.7865,1,1.4198,4.7875,0.7566,0,2,108,39,118,109,147,266,36,22,23,16,"correct",2,-198,226,0,0,0,1,"signal2",1,"(103,195]",4,4,1.56579945540427,0.990182322398774,-2.93375371770245,0.350516016623148,1.15256437914685,4,2
12,112,"neutral",183,1,1,2.5543,3,0.9393,2.5552,0.7725,0,1,90,55,107,91,145,253,17,10,0,0,"incorrect",3,-357,197,0,1,0,0,"noise2",NA,"(89,103]",4,3,0.937778213515578,-0.518621261680079,0.303491763900253,-0.0626203619816673,0.417506991961292,2,2
12,113,"incongruent",197,2,1,2.7421,3,1.3217,2.743,0.7566,0,2,105,33,81,106,138,220,6,10,0,0,"incorrect",1,-343,186,0,1,0,0,"noise2",0,"(103,195]",1,3,1.00872405020524,-0.348175860261937,0.303491763900253,0.278918786781624,1.02517769663111,2,2
12,114,"congruent",190,2,0,2.6587,3,0.404,2.6594,0.7725,0,1,105,47,90,106,152,243,13,10,0,0,"correct",1,-350,195,0,1,0,0,"noise2",0,"(103,195]",3,3,0.977837281525671,-0.422380463826304,0.303491763900253,-0.906340401020987,-1.08365020341021,2,2
12,115,"congruent",160,1,1,2.2384,3,0.9305,2.2394,0.7725,0,1,77,68,106,78,145,252,22,12,0,0,"incorrect",1,-380,183,0,1,0,0,"noise2",1,"[75,81]",4,2,0.80576132492908,-0.835788168422305,0.303491763900253,-0.0720332028998316,0.40075954823662,1,2
12,116,"congruent",180,2,1,2.485,3,1.4412,2.4863,0.7725,0,1,109,40,101,110,149,251,7,13,0,0,"incorrect",1,-360,210,0,1,0,0,"noise2",0,"(103,195]",3,4,0.910272659548592,-0.584702590844449,0.303491763900253,0.365476099891801,1.17918154550889,2,2
12,117,"congruent",161,1,1,2.2731,4,1.1099,2.274,0.7725,0,1,101,41,76,102,142,219,12,8,0,0,"incorrect",1,-379,177,0,1,0,0,"noise2",1,"(89,103]",1,2,0.8211445386233,-0.798830424944251,1.9221145047016,0.104269921175797,0.714440261064006,1,2
12,118,"incongruent",169,2,1,2.3475,4,0.7892,2.3483,0.7566,0,2,96,73,88,97,169,258,14,22,0,0,"incorrect",1,-371,184,0,0,1,0,"signal1",0,"(89,103]",2,2,0.853350932100281,-0.721455459469859,1.9221145047016,-0.236735504833677,0.107719162561107,1,2
12,119,"congruent",153,2,1,2.1446,4,0.7878,2.1453,0.7566,0,2,89,59,96,90,148,245,14,15,0,0,"incorrect",2,-387,185,0,1,0,0,"noise2",1,"(81,89]",3,3,0.762953054803908,-0.938633847971026,1.9221145047016,-0.238511028445332,0.104560128851036,1,2
12,120,"congruent",118,2,1,1.6777,2,1.0852,1.6784,0.7566,1,2,84,76,113,85,160,274,10,15,0,0,"incorrect",2,-422,197,0,0,1,0,"signal1",1,"(81,89]",4,3,0.517423807794218,-1.52851104188617,-1.3151309769011,0.0817643018026396,0.674397982944388,1,2
12,121,"congruent",184,1,0,2.5839,2,1.4764,2.5846,0.7725,0,1,90,31,80,91,121,202,6,9,0,0,"correct",1,-356,170,0,1,0,0,"noise2",1,"(89,103]",1,2,0.9492998854811,-0.490940764912357,-1.3151309769011,0.389606692173706,1.22211499565404,2,2
12,122,"neutral",175,1,1,2.4286,2,0.8222,2.4296,0.7725,0,1,103,49,82,104,152,235,14,10,0,0,"incorrect",3,-365,185,0,1,0,0,"noise2",NA,"(89,103]",2,3,0.887314959637581,-0.63985782700138,-1.3151309769011,-0.195771604518359,0.180602643886071,2,2
12,123,"incongruent",155,1,0,2.2061,2,1.4876,2.207,0.7725,0,1,80,23,128,81,103,232,5,6,0,0,"correct",2,-385,208,0,1,0,0,"noise2",0,"[75,81]",4,4,0.79122625071958,-0.870708280353855,-1.3151309769011,0.397164083068778,1.23556119960256,1,2
12,124,"incongruent",140,2,1,1.9553,3,1.7235,1.9563,0.7725,0,1,91,46,78,92,137,216,11,12,0,0,"incorrect",2,-400,169,0,1,0,0,"noise2",1,"(89,103]",1,1,0.670543634350092,-1.16064491301726,0.303491763900253,0.544357106974783,1.49744885987027,1,2
12,125,"congruent",211,1,0,2.9366,2,2.7449,2.9375,0.7566,0,2,134,37,102,135,171,274,8,10,0,0,"correct",2,-329,236,0,1,0,0,"noise2",0,"(103,195]",3,4,1.0772524495467,-0.183538284904408,-1.3151309769011,1.00974464442541,2.32547215925249,2,2
12,126,"incongruent",274,2,1,3.8031,3,0.8754,3.8042,0.7725,0,1,81,55,108,82,136,245,20,22,7,8,"incorrect",2,-266,189,0,0,0,1,"signal2",1,"[75,81]",4,3,1.33581652363065,0.437654718884216,0.303491763900253,-0.133074354225342,0.292154372009698,3,2
12,127,"congruent",143,1,1,2.0203,3,0.6768,2.021,0.7725,0,1,80,41,79,81,121,201,12,8,0,0,"incorrect",1,-397,159,0,1,0,0,"noise2",1,"[75,81]",1,1,0.70324601523736,-1.08207835157066,0.303491763900253,-0.390379470690124,-0.165646093920693,1,2
12,128,"incongruent",222,2,1,3.1127,3,0.5348,3.1134,0.7725,1,1,79,32,87,80,111,199,20,25,7,14,"incorrect",2,-318,166,0,0,0,1,"signal2",1,"[75,81]",2,1,1.13549051675454,-0.0436229465811969,0.303491763900253,-0.625862433754349,-0.584620312897124,2,2
12,129,"incongruent",217,2,1,3.0307,3,1.0352,3.0315,0.7566,0,2,121,60,92,122,181,274,14,16,0,0,"incorrect",1,-323,213,0,1,0,0,"noise2",0,"(103,195]",3,4,1.10879361594186,-0.107761509010768,0.303491763900253,0.034594644764499,0.590473142014172,2,2
12,130,"congruent",263,2,1,3.6854,3,1.9034,3.6864,0.7566,0,2,76,28,82,77,104,187,25,26,18,20,"incorrect",2,-277,158,0,0,0,1,"signal2",1,"[75,81]",2,1,1.30437906791862,0.362127105025196,0.303491763900253,0.643641760656106,1.67409735151139,3,2
12,131,"congruent",277,2,0,3.8572,3,2.0685,3.8582,0.7725,0,1,89,29,87,90,118,206,28,22,20,16,"correct",1,-263,176,0,0,0,1,"signal2",0,"(81,89]",2,2,1.34994153165409,0.471589658197438,0.303491763900253,0.726823706919329,1.82209570568136,3,2
12,132,"neutral",188,2,1,2.6256,2,1.2039,2.6267,0.7725,0,1,110,34,77,111,144,222,7,9,0,0,"incorrect",3,-352,187,0,1,0,0,"noise2",NA,"(103,195]",1,3,0.965309441353689,-0.45247825175368,-1.3151309769011,0.185566286958844,0.859083766973537,2,2
12,133,"congruent",319,2,0,4.4214,3,1.0647,4.4226,0.7725,0,1,137,44,103,138,181,285,20,19,12,5,"correct",1,-221,240,0,0,0,1,"signal2",0,"(103,195]",3,4,1.48645638801887,0.79956280755103,0.303491763900253,0.0626930693384234,0.640466208761499,4,2
12,134,"congruent",266,2,1,3.6888,3,0.8028,3.6895,0.7566,0,2,86,87,102,87,173,276,17,26,0,0,"incorrect",2,-274,188,0,1,0,0,"noise2",1,"(81,89]",3,3,1.30530120191036,0.364342506318864,0.303491763900253,-0.219649662059954,0.13811850669422,3,2
12,135,"congruent",211,1,NA,2.9372,3,0.9224,2.938,0.7725,0,1,195,71,115,196,266,382,4,4,0,0,NA,1,-329,310,0,0,1,0,"signal1",1,"(103,195]",4,4,1.07745674659532,-0.183047466921493,0.303491763900253,-0.0807763100272878,0.385203703208654,2,2
12,136,"congruent",210,1,1,2.92,3,0.8063,2.9208,0.7725,0,1,142,40,94,143,182,277,13,6,0,0,"incorrect",1,-330,236,0,1,0,0,"noise2",1,"(103,195]",3,4,1.07158361628019,-0.197157499318769,0.303491763900253,-0.215299397291161,0.14585855191927,2,2
12,137,"incongruent",200,1,0,2.815,3,0.4622,2.8158,0.7566,0,2,118,30,83,119,148,232,5,9,0,0,"correct",1,-340,201,0,1,0,0,"noise2",1,"(103,195]",2,3,1.03496226159165,-0.285139286434308,0.303491763900253,-0.771757581141857,-0.844198775108255,2,2
12,138,"congruent",305,2,1,4.2359,2,0.8612,4.2374,0.7566,1,2,78,37,80,79,115,196,35,54,26,37,"incorrect",2,-235,158,0,0,0,1,"signal2",1,"[75,81]",1,1,1.44359582028392,0.696591484447911,-1.3151309769011,-0.149428513491929,0.263056848279857,4,2
12,139,"congruent",142,2,1,1.986,3,0.6415,1.9871,0.7566,0,2,85,53,79,86,138,218,7,19,0,0,"incorrect",2,-398,164,0,1,0,0,"noise2",1,"(81,89]",1,1,0.686122565622981,-1.12321696349447,0.303491763900253,-0.443946094926446,-0.260952498513946,1,3
12,140,"congruent",151,2,1,2.1249,3,0.5494,2.1259,0.7566,0,2,97,34,94,98,131,226,6,11,0,0,"incorrect",2,-389,191,0,1,0,0,"noise2",1,"(89,103]",3,3,0.753724742445549,-0.960804612003493,0.303491763900253,-0.598928505320964,-0.536699132177706,1,3
12,141,"neutral",272,1,1,3.79,3,0.8289,3.7908,0.7725,0,1,195,35,108,196,230,339,9,8,0,0,"incorrect",3,-268,303,0,1,0,0,"noise2",NA,"(103,195]",4,4,1.33236601909433,0.429364977607916,0.303491763900253,-0.187655758384657,0.195042458346336,3,3
12,142,"neutral",159,2,1,2.2143,3,0.4571,2.2156,0.7725,0,2,92,65,76,93,157,234,14,18,0,0,"incorrect",3,-381,168,0,1,0,0,"noise2",NA,"(89,103]",1,1,0.794936326461979,-0.861794926467129,0.303491763900253,-0.782853093644438,-0.863940049060395,1,3
12,143,"incongruent",251,2,0,3.5324,3,0.2666,3.5332,0.7566,0,2,116,36,97,117,152,250,9,9,1,0,"correct",1,-289,213,0,0,0,1,"signal2",0,"(103,195]",3,4,1.26197752661251,0.260258580163309,0.303491763900253,-1.32200587123753,-1.82320738187134,3,3
12,144,"congruent",144,2,1,2.0306,3,0.2682,2.0316,0.7566,0,2,83,49,76,84,132,209,9,15,0,0,"incorrect",2,-396,159,0,1,0,0,"noise2",1,"(81,89]",1,1,0.708331315884985,-1.06986105805972,0.303491763900253,-1.31602230813456,-1.81256135192021,1,3
12,145,"neutral",183,1,0,2.5652,3,0.797,2.5667,0.7566,0,2,129,56,83,130,185,269,13,14,0,0,"correct",3,-357,212,0,0,1,0,"signal1",NA,"(103,195]",2,4,0.942036448292571,-0.50839097094333,0.303491763900253,-0.226900600191922,0.125217547316284,2,3
12,146,"congruent",153,1,0,2.1473,3,0.3242,2.148,0.7566,1,2,112,58,95,113,170,266,12,19,0,0,"correct",2,-387,207,0,0,1,0,"signal1",0,"(103,195]",3,4,0.76421123899095,-0.935611095420284,0.303491763900253,-1.12639466968056,-1.47517349725856,1,3
12,147,"congruent",193,1,1,2.693,3,0.4113,2.694,0.7566,0,1,87,37,85,88,124,210,12,6,0,0,"incorrect",1,-347,172,0,1,0,0,"noise2",1,"(81,89]",2,2,0.990655813829462,-0.391584296129132,0.303491763900253,-0.888432403745759,-1.05178807175453,2,3
12,148,"congruent",140,1,0,1.9673,3,0.3221,1.9683,0.7725,1,1,87,28,78,88,115,194,12,13,1,1,"correct",1,-400,165,0,1,0,0,"noise2",1,"(81,89]",1,1,0.676662044300083,-1.14594560311232,0.303491763900253,-1.13289322264498,-1.48673580358134,1,3
12,149,"congruent",112,2,0,1.573,3,0.6405,1.574,0.7566,0,1,93,42,139,94,135,275,6,4,0,0,"correct",1,-428,232,0,0,1,0,"signal1",0,"(89,103]",4,4,0.452984624076141,-1.6833243903273,0.303491763900253,-0.445506157645348,-0.263728181521757,1,3
12,150,"congruent",151,2,0,2.1261,3,0.3668,2.1268,0.7725,0,1,81,53,77,82,134,212,16,10,0,0,"correct",1,-389,158,0,1,0,0,"noise2",0,"[75,81]",1,1,0.754289315502183,-0.959448240921583,0.303491763900253,-1.00293853859983,-1.25551881216231,1,3
12,151,"congruent",129,2,0,1.8214,3,0.3043,1.8224,0.7566,0,2,87,34,89,88,121,211,9,8,0,0,"correct",2,-411,176,0,1,0,0,"noise2",1,"(81,89]",2,2,0.599605436151581,-1.33107196317264,0.303491763900253,-1.18974122207921,-1.58788047177049,1,3
12,152,"neutral",151,2,0,2.1278,3,0.3401,2.1287,0.7566,0,2,88,67,95,89,155,251,16,15,0,0,"correct",3,-389,183,0,0,1,0,"signal1",NA,"(81,89]",3,2,0.755088582100129,-0.957528025127626,0.303491763900253,-1.07851558696899,-1.38998643733984,1,3
12,153,"congruent",154,2,0,2.1585,2,0.8831,2.1597,0.7725,0,1,82,24,77,83,106,184,6,5,0,0,"correct",1,-386,159,0,1,0,0,"noise2",0,"(81,89]",1,1,0.769413536013395,-0.923112721369586,-1.3151309769011,-0.124316834507381,0.307735860098086,1,3
12,154,"congruent",169,2,0,2.3445,3,0.2927,2.3455,0.7725,0,1,82,69,100,83,151,252,20,14,0,0,"correct",1,-371,182,0,1,0,0,"noise2",0,"(81,89]",3,2,0.852072159547504,-0.724527674997234,0.303491763900253,-1.2286070852843,-1.65703109935434,1,3
12,155,"congruent",150,1,1,2.1407,2,0.4057,2.1415,0.7725,0,1,75,38,89,76,113,203,10,9,0,0,"incorrect",1,-390,164,0,1,0,0,"noise2",1,"[75,81]",2,1,0.76113287835104,-0.943006771325473,-1.3151309769011,-0.902141308769736,-1.07617912621003,1,3
12,156,"congruent",183,1,NA,2.5711,3,0.3357,2.5718,0.7725,0,1,117,48,75,118,165,241,12,12,0,0,NA,1,-357,192,0,1,0,0,"noise2",1,"(103,195]",1,3,0.944333822898798,-0.502871592284381,0.303491763900253,-1.09153737499615,-1.41315496468195,2,3
12,157,"congruent",148,2,0,2.079,3,0.3023,2.0799,0.7725,0,1,104,26,75,105,130,206,8,4,0,0,"correct",1,-392,179,0,1,0,0,"noise2",0,"(103,195]",1,2,0.731887008875876,-1.0132691601436,0.303491763900253,-1.19633537719672,-1.59961287463403,1,3
12,158,"congruent",168,2,1,2.3566,3,0.8846,2.3573,0.7725,0,1,79,24,79,80,103,183,4,8,0,0,"incorrect",1,-372,158,0,1,0,0,"noise2",0,"[75,81]",1,1,0.857219902297103,-0.71216036607126,0.303491763900253,-0.122619713547911,0.3107553988335,2,3
12,159,"congruent",329,2,0,4.5793,3,0.4631,4.5802,0.7725,0,1,79,30,106,80,109,216,39,33,31,26,"correct",1,-211,185,0,0,0,1,"signal2",0,"[75,81]",4,3,1.52154614801716,0.883864980978586,0.303491763900253,-0.769812265495431,-0.840737645296492,4,3
12,160,"congruent",157,2,0,2.1944,3,1.3902,2.1954,0.7725,0,1,95,89,91,96,184,276,16,15,0,0,"correct",1,-383,186,0,0,1,0,"signal1",0,"(89,103]",3,3,0.785908660641256,-0.883483642767886,0.303491763900253,0.329447621684249,1.11507922863002,1,3
12,161,"congruent",254,2,1,3.5429,2,1.0137,3.5436,0.7566,0,2,90,27,76,91,117,194,21,23,13,18,"incorrect",2,-286,166,0,0,0,1,"signal2",1,"(89,103]",1,1,1.26494560081665,0.267389295970871,-1.3151309769011,0.0136070034062169,0.553131669273125,3,3
12,162,"congruent",303,2,0,4.2428,2,1.4051,4.2436,0.7725,0,1,120,66,99,121,186,286,20,21,7,2,"correct",1,-237,219,0,0,0,1,"signal2",0,"(103,195]",3,4,1.44522342864918,0.700501768322364,-1.3151309769011,0.340108474630157,1.13404715088865,4,3
12,163,"neutral",125,1,1,1.7818,4,1.054,1.7825,0.7566,1,2,75,60,99,76,135,235,20,13,0,0,"incorrect",3,-415,174,0,0,1,0,"signal1",NA,"[75,81]",3,2,0.577624089304406,-1.38388153822166,1.9221145047016,0.0525924501191706,0.622495061322647,1,3
12,164,"congruent",140,2,1,1.9519,3,0.4135,1.9532,0.7566,0,2,81,31,78,82,112,191,7,8,0,0,"incorrect",2,-400,159,0,1,0,0,"noise2",1,"[75,81]",1,1,0.668803257170428,-1.16482612083506,0.303491763900253,-0.883097764518391,-1.04229661524013,1,3
12,165,"congruent",422,1,1,5.8867,3,1.6128,5.8875,0.7725,0,1,81,54,122,82,135,258,61,49,44,39,"incorrect",1,-118,203,0,0,0,1,"signal2",1,"[75,81]",4,3,1.77269556900583,1.48724448672178,0.303491763900253,0.477971798894912,1.37933529342645,4,3
12,166,"congruent",293,2,0,4.1283,3,0.661,4.1291,0.7566,0,2,89,29,84,90,118,203,32,27,25,20,"correct",2,-247,173,0,0,0,1,"signal2",1,"(81,89]",2,2,1.41786569995721,0.6347755852739,0.303491763900253,-0.414001439130451,-0.207674594195987,3,3
12,167,"neutral",273,1,1,3.8334,3,0.5966,3.8346,0.7566,0,2,76,32,102,77,108,211,27,19,18,13,"incorrect",3,-267,178,0,0,0,1,"signal2",NA,"[75,81]",3,2,1.34375213785422,0.456719811565428,0.303491763900253,-0.516508406901489,-0.39005626717417,3,3
12,168,"neutral",292,2,1,4.0736,3,0.8143,4.0751,0.7566,0,2,78,28,79,79,106,186,32,35,24,30,"incorrect",3,-248,157,0,0,0,1,"signal2",NA,"[75,81]",1,1,1.40452712938095,0.602730040076378,0.303491763900253,-0.205426430509051,0.163424657308331,3,3
12,169,"congruent",175,1,1,2.4236,3,0.9389,2.4246,0.7725,0,1,103,27,77,104,130,208,10,3,0,0,"incorrect",1,-365,180,0,1,0,0,"noise2",1,"(89,103]",1,2,0.885254038088697,-0.644809133759907,0.303491763900253,-0.0630463017176353,0.416749154681321,2,3
12,170,"neutral",249,2,0,3.4487,3,0.6607,3.4494,0.7566,0,1,84,62,83,85,146,230,25,15,7,3,"correct",3,-291,167,0,0,0,1,"signal2",NA,"(81,89]",2,1,1.23799734843774,0.202646868387231,0.303491763900253,-0.414455399946297,-0.208482286930061,3,3
12,171,"congruent",360,1,1,5.034,NA,NA,5.0349,0.7725,1,1,76,54,126,77,130,257,62,37,39,26,"incorrect",1,-180,202,0,0,0,1,"signal2",1,"[75,81]",4,3,1.61621489671312,1.11130401935118,NA,NA,NA,4,3
12,172,"incongruent",157,1,1,2.1667,3,0.422,2.1682,0.7566,0,2,100,43,100,101,143,244,14,7,0,0,"incorrect",1,-383,200,0,1,0,0,"noise2",1,"(89,103]",3,3,0.773205272730524,-0.914003179260018,0.303491763900253,-0.862749964946125,-1.00609355696897,1,3
12,173,"congruent",260,2,1,3.6223,4,0.6509,3.6234,0.7566,0,2,78,25,103,79,103,207,14,25,9,18,"incorrect",2,-280,181,0,0,0,1,"signal2",1,"[75,81]",3,2,1.28710918319855,0.320636686828656,1.9221145047016,-0.429399258403795,-0.235070585906141,3,3
12,174,"congruent",163,2,1,2.2878,4,0.5376,2.2886,0.7566,0,2,101,39,87,102,140,228,8,11,0,0,"incorrect",2,-377,188,0,1,0,0,"noise2",1,"(89,103]",2,3,0.827590657109436,-0.783343804386595,1.9221145047016,-0.620640489773197,-0.575329365167521,1,3
12,175,"congruent",409,1,0,5.6758,2,0.5939,5.6768,0.7725,0,1,87,52,115,88,139,255,50,53,35,42,"correct",1,-131,202,0,0,0,1,"signal2",1,"(81,89]",4,3,1.73621152259524,1.39959257892891,-1.3151309769011,-0.521044323960323,-0.398126627264502,4,3
12,176,"neutral",289,1,1,3.9838,3,0.3533,3.9849,0.7566,0,2,81,143,141,82,224,366,38,33,0,0,"incorrect",3,-251,222,0,1,0,0,"noise2",NA,"[75,81]",4,4,1.38223613765904,0.549176551819278,0.303491763900253,-1.04043772461704,-1.32223783068225,3,3
12,177,"neutral",150,2,1,2.1318,4,0.4532,2.1325,0.7566,0,2,77,50,84,78,127,212,9,16,0,0,"incorrect",3,-390,161,0,1,0,0,"noise2",NA,"[75,81]",2,1,0.7569666932729,-0.953015915218329,1.9221145047016,-0.791421749828286,-0.879185508798074,1,3
12,178,"neutral",269,2,1,3.776,3,0.6949,3.7768,0.7566,0,2,98,33,111,99,131,243,12,17,5,8,"incorrect",3,-271,209,0,0,0,1,"signal2",NA,"(89,103]",4,4,1.32866524828325,0.420473978560144,0.303491763900253,-0.363987328661855,-0.118688866316958,3,3
12,179,"congruent",263,2,1,3.6628,3,0.5151,3.6641,0.7566,0,2,86,58,90,87,144,235,21,21,6,8,"incorrect",2,-277,176,0,0,0,1,"signal2",1,"(81,89]",3,2,1.29822788225144,0.347349052370369,0.303491763900253,-0.663394222410598,-0.651397338438252,3,3
12,180,"congruent",140,1,1,1.9736,3,0.2847,1.9744,0.7725,0,1,79,32,79,80,111,191,11,5,0,0,"incorrect",1,-400,158,0,1,0,0,"noise2",1,"[75,81]",1,1,0.67985928623301,-1.13826431820377,0.303491763900253,-1.25631928469815,-1.70633698948945,1,3
12,181,"incongruent",230,2,1,3.2283,3,1.302,3.229,0.7566,0,2,83,43,97,84,126,224,11,14,3,1,"incorrect",1,-310,180,0,0,0,1,"signal2",0,"(81,89]",3,2,1.17195568289232,0.0439836018808334,0.303491763900253,0.263901543786378,0.998458830972043,2,3
12,182,"neutral",164,2,1,2.2804,3,0.2431,2.2813,0.7566,0,1,88,36,121,89,124,246,7,10,0,0,"incorrect",3,-376,209,0,1,0,0,"noise2",NA,"(81,89]",4,4,0.82435086617529,-0.791127312088349,0.303491763900253,-1.41428239766006,-1.98738692626239,1,3
12,183,"incongruent",355,1,1,4.9458,2,0.677,4.9465,0.7566,0,2,106,25,87,107,131,219,40,40,35,33,"incorrect",1,-185,193,0,0,0,1,"signal2",1,"(103,195]",2,3,1.5985387315651,1.06883752371498,-1.3151309769011,-0.390084006069862,-0.16512039959063,4,3
12,184,"congruent",389,2,0,5.3626,3,0.509,5.3636,0.7566,0,2,96,37,129,97,133,263,40,41,33,30,"correct",2,-151,225,0,0,0,1,"signal2",1,"(89,103]",4,4,1.67944893209891,1.26322203240901,0.303491763900253,-0.675307262431614,-0.672593167527081,4,3
12,185,"congruent",259,1,1,3.6036,3,0.631,3.6046,0.7725,0,1,91,27,112,92,118,231,15,12,6,8,"incorrect",1,-281,203,0,0,0,1,"signal2",1,"(89,103]",4,3,1.28193334579515,0.308201881277525,0.303491763900253,-0.460449416440924,-0.290315413571879,3,3
12,186,"congruent",309,1,1,4.3036,3,1.0298,4.3051,0.7725,0,1,94,27,80,95,121,202,36,31,30,24,"incorrect",1,-231,174,0,0,0,1,"signal2",1,"(89,103]",1,2,1.45945188173762,0.73468523153003,0.303491763900253,0.029364608629904,0.581167796624438,4,3
12,187,"congruent",243,2,1,3.3853,4,1.4129,3.3862,0.7566,0,2,85,28,91,86,113,205,10,23,5,14,"incorrect",2,-297,176,0,0,0,1,"signal2",1,"(81,89]",3,2,1.21944252872963,0.158069429583822,1.9221145047016,0.345644329789625,1.14389661329402,3,3
12,188,"congruent",504,1,1,6.9796,3,1.1446,6.9806,0.7725,0,1,82,37,84,83,119,204,91,78,80,71,"incorrect",1,-36,166,0,0,0,1,"signal2",1,"(81,89]",2,1,1.94299160854194,1.89637599003494,0.303491763900253,0.135055230992865,0.769213867480006,4,3
12,189,"congruent",189,1,1,2.6646,4,0.3459,2.6656,0.7725,0,1,88,34,87,89,122,210,9,7,0,0,"incorrect",1,-351,175,0,1,0,0,"noise2",1,"(81,89]",2,2,0.980053952543975,-0.417054973294993,1.9221145047016,-1.06160556303901,-1.35989991228197,2,3
12,190,"congruent",137,1,1,1.9343,4,0.3819,1.935,0.7725,0,1,91,77,119,92,168,288,15,8,0,0,"incorrect",1,-403,210,0,0,1,0,"signal1",1,"(89,103]",4,4,0.659745503925915,-1.18658712133549,1.9221145047016,-0.962596484750667,-1.18374172781015,1,3
12,191,"neutral",244,2,1,3.3969,3,0.7736,3.3978,0.7566,0,2,82,35,79,83,117,197,17,24,6,18,"incorrect",3,-296,161,0,0,0,1,"signal2",NA,"(81,89]",1,1,1.22286325100597,0.166287619808021,0.303491763900253,-0.256700334843053,0.0721974885031242,3,3
12,192,"incongruent",363,2,1,5.0548,3,0.3677,5.0558,0.7566,0,2,81,23,82,82,104,187,46,53,42,46,"incorrect",1,-177,163,0,0,0,1,"signal2",0,"[75,81]",2,1,1.62033828690239,1.12121034971257,0.303491763900253,-1.00048789067491,-1.25115858887071,4,3
12,193,"congruent",321,2,0,4.469,3,0.5886,4.47,0.7725,0,1,94,51,88,95,145,234,41,28,27,17,"correct",1,-219,182,0,0,0,1,"signal2",0,"(89,103]",2,2,1.49716466995131,0.825289157364307,0.303491763900253,-0.530008443182765,-0.414075699762838,4,3
12,194,"incongruent",273,1,1,3.7991,3,1.0224,3.7999,0.7725,0,1,92,30,93,93,122,216,27,16,18,11,"incorrect",2,-267,185,0,0,0,1,"signal2",0,"(89,103]",3,3,1.33476419657556,0.435126532373233,0.303491763900253,0.0221528046411333,0.568336465201187,3,3
12,195,"congruent",251,1,0,3.5242,3,0.4701,3.525,0.7725,0,1,78,43,79,79,121,201,23,23,9,16,"correct",1,-289,157,0,0,0,1,"signal2",1,"[75,81]",1,1,1.25965346015249,0.254675075067263,0.303491763900253,-0.754809840952052,-0.814045144811434,3,3
12,196,"congruent",NA,2,1,7.7537,3,2.6938,7.4669,0.7566,0,2,81,32,100,82,113,214,86,94,76,88,"incorrect",2,NA,181,NA,NA,NA,NA,NA,1,"[75,81]",3,2,2.04817014879173,2.14906451060125,0.303491763900253,0.990952836182577,2.29203754012232,4,3
12,197,"incongruent",176,1,1,2.4327,3,0.2672,2.4337,0.7566,0,2,107,26,90,108,133,224,8,5,0,0,"incorrect",1,-364,197,0,1,0,0,"noise2",1,"(103,195]",3,3,0.889001751636484,-0.6358053560915,0.303491763900253,-1.31975783731965,-1.81920765194302,2,3
12,198,"congruent",139,1,1,1.9458,3,0.3298,1.9467,0.7566,0,2,86,27,75,87,113,189,9,4,0,0,"incorrect",2,-401,161,0,1,0,0,"noise2",0,"(81,89]",1,1,0.66567320355919,-1.17234598766757,0.303491763900253,-1.10926886885664,-1.44470305926516,1,3
12,199,"neutral",251,2,0,3.5111,2,0.7742,3.5126,0.7725,1,1,85,26,83,86,111,195,35,23,23,13,"correct",3,-289,168,0,0,0,1,"signal2",NA,"(81,89]",2,1,1.25592937869468,0.245728072838396,-1.3151309769011,-0.255925040838589,0.0735769012460686,3,3
12,200,"incongruent",284,2,1,3.9574,3,0.3043,3.9582,0.7566,0,2,88,39,78,89,127,206,28,31,18,22,"incorrect",1,-256,166,0,0,0,1,"signal2",0,"(81,89]",1,1,1.3755872439762,0.533202769485659,0.303491763900253,-1.18974122207921,-1.58788047177049,3,3
12,201,"congruent",257,2,0,3.6188,3,0.6686,3.6195,0.7725,1,1,109,25,92,110,134,227,29,18,15,9,"correct",1,-283,201,0,0,0,1,"signal2",0,"(103,195]",3,3,1.28614247916945,0.31831420725859,0.303491763900253,-0.402569304996139,-0.187334398846693,3,3
12,202,"neutral",447,2,1,6.221,3,0.4449,6.2219,0.7566,0,2,111,65,96,112,176,273,57,62,44,43,"incorrect",3,-93,207,0,0,0,1,"signal2",NA,"(103,195]",3,4,1.82793066553288,1.61994527142188,0.303491763900253,-0.809905741170141,-0.912072456266578,4,3
12,203,"congruent",397,1,0,5.5142,2,1.1302,5.5149,0.7566,0,2,93,28,94,94,121,216,47,58,41,50,"correct",2,-143,187,0,0,0,1,"signal2",0,"(89,103]",3,3,1.70732658325321,1.33019731472719,-1.3151309769011,0.122394608213606,0.746687929842435,4,3
12,204,"neutral",342,2,1,4.7478,2,2.7348,4.7485,0.7566,0,2,78,143,99,79,221,321,40,42,4,7,"incorrect",3,-198,177,0,0,0,1,"signal2",NA,"[75,81]",3,2,1.55768135286107,0.970678806600054,-1.3151309769011,1.0060583070575,2.3189133819231,4,3
12,205,"congruent",337,1,1,4.6932,3,2.2421,4.6942,0.7725,0,1,77,51,81,78,128,210,55,34,40,24,"incorrect",1,-203,158,0,0,0,1,"signal2",1,"[75,81]",1,1,1.54611465256733,0.942890130524915,0.303491763900253,0.807412926688289,1.96548104860067,4,3
12,206,"congruent",484,1,1,6.7041,3,1.6857,6.7048,0.7725,1,1,92,63,85,93,155,241,93,78,73,58,"incorrect",1,-56,177,0,0,0,1,"signal2",1,"(89,103]",2,2,1.90271927953631,1.79962283856485,0.303491763900253,0.522180907804125,1.45799269027528,4,3
12,207,"congruent",426,2,1,5.9161,3,1.5391,5.9172,0.7566,0,2,128,44,95,129,172,268,48,53,38,42,"incorrect",2,-114,223,0,0,0,1,"signal2",1,"(103,195]",3,4,1.77767744801874,1.49921331262889,0.303491763900253,0.431197830003771,1.29611446577256,4,3
12,208,"neutral",298,2,0,4.1523,3,2.1062,4.1533,0.7566,0,2,85,32,78,86,117,196,38,30,30,22,"correct",3,-242,163,0,0,0,1,"signal2",NA,"(81,89]",1,1,1.42366239758863,0.648701990272249,0.303491763900253,0.74488537596436,1.85423125206264,3,4
12,209,"neutral",338,2,1,4.6882,3,0.7012,4.689,0.7566,0,2,108,68,80,109,176,257,36,38,20,21,"incorrect",3,-202,188,0,0,0,1,"signal2",NA,"(103,195]",1,3,1.54504871348075,0.940329241486501,0.303491763900253,-0.354962125935058,-0.102631113287357,4,4
12,210,"congruent",NA,NA,NA,NA,2,0.8596,7.5277,0.7566,0,2,105,29,134,106,134,269,67,83,60,76,NA,2,NA,239,NA,NA,NA,NA,NA,NA,"(103,195]",4,4,NA,NA,-1.3151309769011,-0.151288114213782,0.259748223528802,NA,4
12,211,"congruent",494,2,1,6.9541,4,1.1423,6.9549,0.7566,0,2,104,38,102,105,142,245,63,80,55,70,"incorrect",2,-46,206,0,0,0,1,"signal2",1,"(103,195]",3,4,1.9393314136951,1.88758247361386,1.9221145047016,0.133043773757764,0.765635057730399,4,4
12,212,"congruent",228,2,1,3.2146,2,0.9788,3.2156,0.7566,0,1,93,25,81,94,118,200,13,14,7,8,"incorrect",1,-312,174,0,0,0,1,"signal2",0,"(89,103]",1,2,1.1677029331529,0.0337664887944613,-1.3151309769011,-0.0214279474136204,0.490797048689064,2,4
12,213,"congruent",272,2,1,3.8092,4,0.2531,3.8102,0.7566,0,2,112,27,96,113,139,236,12,20,7,12,"incorrect",2,-268,208,0,0,0,1,"signal2",1,"(103,195]",3,4,1.33741919333775,0.441505088325376,1.9221145047016,-1.37397061143106,-1.91566369443676,3,4
12,214,"congruent",223,1,1,3.1123,3,0.2813,3.1133,0.7725,0,1,106,48,77,107,154,232,13,10,0,0,"incorrect",1,-317,183,0,1,0,0,"noise2",1,"(103,195]",1,2,1.13536200269814,-0.0439316980309415,0.303491763900253,-1.26833356348633,-1.72771294385296,2,4
12,215,"congruent",161,2,0,2.2827,3,0.2772,2.2835,0.7566,0,2,83,45,77,84,128,206,12,10,0,0,"correct",2,-379,160,0,1,0,0,"noise2",1,"(81,89]",1,1,0.82535895286845,-0.788705411817702,0.303491763900253,-1.28301601166639,-1.75383613840961,1,4
12,216,"incongruent",197,2,1,2.7534,3,0.1585,2.7542,0.7566,0,2,76,30,97,77,106,204,6,8,0,0,"incorrect",1,-343,173,0,1,0,0,"noise2",0,"[75,81]",3,2,1.01283651164671,-0.338295785913487,0.303491763900253,-1.8420006856648,-2.74838862815556,2,4
12,217,"congruent",275,1,0,3.8185,2,1.3337,3.8195,0.7566,0,2,82,25,143,83,107,251,11,13,5,7,"correct",2,-265,225,0,0,0,1,"signal2",0,"(81,89]",4,4,1.3398576753463,0.447363473597734,-1.3151309769011,0.287957034646212,1.04125865973224,3,4
12,218,"congruent",156,2,NA,2.175,3,0.6103,2.176,0.7566,0,2,83,41,93,84,124,218,10,10,0,0,NA,2,-384,176,0,1,0,0,"noise2",1,"(81,89]",3,2,0.777028664540647,-0.90481758666907,0.303491763900253,-0.493804639431688,-0.349661441494623,1,4
12,219,"congruent",116,2,0,1.6201,4,1.0433,1.6211,0.7566,0,2,79,47,91,80,126,218,12,7,0,0,"correct",2,-424,170,0,0,1,0,"signal1",1,"[75,81]",3,2,0.482487875734236,-1.61244364796604,1.9221145047016,0.0423887664917865,0.60434054040599,1,4
12,220,"neutral",168,2,1,2.3371,4,0.5065,2.3381,0.7566,0,2,114,25,79,115,139,219,2,10,0,0,"incorrect",3,-372,193,0,1,0,0,"noise2",NA,"(103,195]",1,3,0.848910844542842,-0.732122646458854,1.9221145047016,-0.680230955293399,-0.681353463152729,1,4
12,221,"incongruent",260,2,0,3.6287,2,0.994,3.6297,0.7725,0,1,79,59,90,80,138,229,25,20,10,6,"correct",2,-280,169,0,0,0,1,"signal2",1,"[75,81]",3,1,1.28887445741231,0.324877709079091,-1.3151309769011,-0.00601807232556302,0.518214490254814,3,4
12,222,"neutral",252,2,1,3.5155,3,0.7453,3.5162,0.7566,0,2,80,36,79,81,116,196,18,28,10,19,"incorrect",3,-288,159,0,0,0,1,"signal2",NA,"[75,81]",1,1,1.25718176265708,0.2487368905106,0.303491763900253,-0.293968457094489,0.00588958151133453,3,4
12,223,"congruent",271,1,0,3.7725,3,0.7977,3.7734,0.7566,0,2,139,31,85,140,170,256,11,12,4,4,"correct",2,-269,224,0,0,0,1,"signal2",0,"(103,195]",2,4,1.32773791165987,0.418246078088487,0.303491763900253,-0.226022692065053,0.126779532383066,3,4
12,224,"congruent",378,2,1,5.2155,2,2.2511,5.2164,0.7566,0,2,76,24,78,77,100,179,48,63,44,56,"incorrect",2,-162,154,0,0,0,1,"signal2",1,"[75,81]",1,1,1.65163496113389,1.19639973997622,-1.3151309769011,0.811418985637981,1.972608678548,4,4
12,225,"neutral",182,1,1,2.5451,3,0.4079,2.5461,0.7566,0,2,103,31,76,104,134,211,8,7,0,0,"incorrect",3,-358,179,0,1,0,0,"noise2",NA,"(89,103]",1,2,0.934169941961392,-0.527290033833253,0.303491763900253,-0.896733232658624,-1.06655700987799,2,4
12,226,"congruent",368,2,1,5.1377,3,0.4418,5.1389,0.7566,0,2,97,52,137,98,149,287,25,42,17,24,"incorrect",2,-172,234,0,0,0,1,"signal2",1,"(89,103]",4,4,1.63660550850501,1.16029189762841,0.303491763900253,-0.81689798799612,-0.924513148852929,4,4
12,227,"incongruent",424,2,0,5.8656,2,0.6763,5.8666,0.7566,1,1,122,38,86,123,160,247,71,57,48,50,"correct",2,-116,208,0,0,0,1,"signal2",1,"(103,195]",2,4,1.76910477866325,1.47861771269378,-1.3151309769011,-0.391118514401243,-0.166961009690507,4,4
12,228,"congruent",287,2,0,3.9797,3,0.3401,3.9807,0.7725,0,1,110,41,89,111,151,241,25,18,15,8,"correct",1,-253,199,0,0,0,1,"signal2",0,"(103,195]",2,3,1.38120643957094,0.546702730772779,0.303491763900253,-1.07851558696899,-1.38998643733984,3,4
12,229,"neutral",260,1,0,3.5975,3,0.7789,3.5986,0.7566,0,2,76,30,78,77,106,185,25,27,19,19,"correct",3,-280,154,0,0,0,1,"signal2",NA,"[75,81]",1,1,1.28023915977939,0.304131646447584,0.303491763900253,-0.249872611056234,0.0843454596503568,3,4
12,230,"congruent",361,1,1,5.0117,3,0.6823,5.0124,0.7725,0,1,109,45,91,110,154,246,48,32,33,25,"incorrect",1,-179,200,0,0,0,1,"signal2",1,"(103,195]",3,3,1.61177517889759,1.10063772065683,0.303491763900253,-0.382285835160759,-0.151245796844125,4,4
12,231,"congruent",181,1,1,2.5534,3,0.6366,2.5546,0.7725,0,1,94,62,85,95,156,242,18,12,0,0,"incorrect",1,-359,179,0,1,0,0,"noise2",1,"(89,103]",2,2,0.937425804404113,-0.519467914778693,0.303491763900253,-0.451613764134145,-0.274594911008938,2,4
12,232,"congruent",176,1,1,2.4356,4,0.5021,2.4365,0.7725,0,1,125,49,109,126,174,284,16,8,0,0,"incorrect",1,-364,234,0,1,0,0,"noise2",1,"(103,195]",4,4,0.890193132752282,-0.632943096063299,1.9221145047016,-0.688955975941477,-0.69687712849146,2,4
12,233,"incongruent",256,1,0,3.5558,2,0.6208,3.5567,0.7566,0,2,84,26,107,85,110,218,12,20,8,12,"correct",1,-284,191,0,0,0,1,"signal2",1,"(81,89]",4,3,1.26858007310033,0.276121014648673,-1.3151309769011,-0.476746310113128,-0.3193110496434,3,4
12,234,"congruent",287,2,0,4.0207,2,1.2413,4.0215,0.7566,0,2,115,58,78,116,173,252,30,17,12,6,"correct",2,-253,193,0,0,0,1,"signal2",1,"(103,195]",1,3,1.39145601682541,0.57132705534231,-1.3151309769011,0.216159217539765,0.913515089858012,3,4
12,235,"congruent",157,1,1,2.1859,3,0.6594,2.1872,0.7725,0,2,83,83,114,84,166,281,19,18,0,0,"incorrect",2,-383,197,0,0,1,0,"signal1",0,"(81,89]",4,3,0.78202764305382,-0.8928076796877,0.303491763900253,-0.416424948344506,-0.211986531955426,1,4
12,236,"congruent",170,2,1,2.3741,3,0.3247,2.3751,0.7566,0,2,116,35,77,117,151,229,8,9,0,0,"incorrect",2,-370,193,0,1,0,0,"noise2",1,"(103,195]",1,3,0.864618418299485,-0.69438563694317,0.303491763900253,-1.12485359987334,-1.47243160667561,2,4
12,237,"congruent",243,2,1,3.3717,3,0.4093,3.3724,0.7725,0,2,119,27,75,120,146,222,12,12,5,6,"incorrect",2,-297,194,0,0,0,1,"signal2",1,"(103,195]",1,3,1.21541706821019,0.148398372533231,0.303491763900253,-0.89330689548378,-1.06046082812836,3,4
12,238,"congruent",323,2,0,4.4863,3,0.7843,4.4871,0.7725,0,1,86,31,77,87,117,195,47,32,37,27,"correct",1,-217,163,0,0,0,1,"signal2",0,"(81,89]",1,1,1.50102830858336,0.83457144182666,0.303491763900253,-0.242963678763516,0.0966379179821004,4,4
12,239,"congruent",161,1,1,2.2543,3,0.7168,2.2558,0.7725,0,1,82,29,94,83,111,206,10,4,0,0,"incorrect",1,-379,176,0,1,0,0,"noise2",1,"(81,89]",3,2,0.81283950347795,-0.818783041125705,0.303491763900253,-0.332958417321416,-0.0634818410384302,1,4
12,240,"congruent",241,2,0,3.3299,3,0.345,3.3309,0.7725,0,1,136,74,93,137,210,304,20,16,0,0,"correct",1,-299,229,0,1,0,0,"noise2",0,"(103,195]",3,4,1.20294227351141,0.118428024881349,0.303491763900253,-1.06421086195078,-1.36453529253433,3,4
12,241,"congruent",142,2,0,1.985,3,0.4853,1.9859,0.7566,0,1,89,27,80,90,116,197,8,5,0,0,"correct",1,-398,169,0,1,0,0,"noise2",0,"(81,89]",1,1,0.685618914139154,-1.12442697219041,0.303491763900253,-0.722988022570967,-0.757427369456751,1,4
12,242,"neutral",165,1,1,2.3264,3,0.7078,2.3273,0.7566,0,2,83,29,98,84,112,211,13,1,0,0,"incorrect",3,-375,181,0,1,0,0,"noise2",NA,"(81,89]",3,2,0.844322008357063,-0.743147197894459,0.303491763900253,-0.345593711070774,-0.0859627129507268,1,4
12,243,"congruent",165,2,0,2.3255,2,0.3466,2.3265,0.7725,0,1,77,28,88,78,105,194,9,5,0,0,"correct",1,-375,165,0,1,0,0,"noise2",0,"[75,81]",2,1,0.843935069682015,-0.744076807310179,-1.3151309769011,-1.05958390170063,-1.35630294726479,1,4
12,244,"incongruent",127,2,0,1.8011,3,0.4039,1.802,0.7725,0,1,102,28,98,103,130,229,7,5,0,0,"correct",2,-413,200,0,0,1,0,"signal1",1,"(89,103]",3,3,0.588397589360875,-1.3579985036775,0.303491763900253,-0.90658795641277,-1.08409065704463,1,4
12,245,"congruent",271,1,0,3.7589,3,0.6433,3.76,0.7725,0,1,117,25,97,118,142,240,12,16,7,9,"correct",1,-269,214,0,0,0,1,"signal2",1,"(103,195]",3,4,1.32412636140828,0.409569428955909,0.303491763900253,-0.441144100565182,-0.255967155269532,3,4
12,246,"congruent",347,2,0,4.8262,3,2.104,4.827,0.7725,1,1,100,46,77,101,146,224,53,49,34,36,"correct",1,-193,177,0,0,0,1,"signal2",0,"(89,103]",1,2,1.57405940853228,1.01002663028618,0.303491763900253,0.743840294875463,1.85237183078099,4,4
12,247,"congruent",394,1,1,5.4745,4,1.1071,5.476,0.7725,0,1,95,81,82,96,176,259,62,46,36,32,"incorrect",1,-146,177,0,0,0,1,"signal2",1,"(89,103]",2,2,1.70010094733134,1.31283792518906,1.9221145047016,0.101743983883284,0.709946081992438,4,4
12,248,"incongruent",142,1,NA,2.0123,4,0.7939,2.013,0.7566,0,1,77,36,110,78,113,224,9,9,0,0,NA,2,-398,187,0,1,0,0,"noise2",0,"[75,81]",4,3,0.699278346490186,-1.09161056549414,1.9221145047016,-0.230797770251069,0.118283653838375,1,4
12,249,"congruent",40,2,NA,0.5679,4,0.5973,0.5688,0.7566,0,2,98,34,90,99,132,223,NA,NA,NA,NA,NA,2,-500,188,1,0,0,0,"noise1",1,"(89,103]",3,3,-0.56580993209875,-4.13095000434935,1.9221145047016,-0.515335779243877,-0.38796991344987,1,4
12,250,"congruent",151,1,1,2.1586,4,0.5511,2.1595,0.7725,0,1,98,79,111,99,177,289,15,11,0,0,"incorrect",1,-389,209,0,0,1,0,"signal1",1,"(89,103]",4,4,0.769459863409109,-0.92300142108859,1.9221145047016,-0.595838998092947,-0.531202242462049,1,4
12,251,"congruent",188,2,1,2.6272,3,0.4544,2.6287,0.7725,0,1,76,30,80,77,106,187,3,12,1,0,"incorrect",1,-352,156,0,0,0,1,"signal2",0,"[75,81]",1,1,0.965918640275972,-0.451014668269476,0.303491763900253,-0.788777411575195,-0.874480669263692,2,4
12,252,"congruent",150,2,1,2.137,3,0.9275,2.1379,0.7566,1,2,85,42,118,86,127,246,14,19,1,2,"incorrect",2,-390,203,0,1,0,0,"noise2",1,"(81,89]",4,3,0.759402976337011,-0.947162812848882,0.303491763900253,-0.0752624845005469,0.395013970217264,1,4
12,253,"congruent",61,1,NA,0.8459,2,1.0542,0.8474,0.7725,1,1,80,26,77,81,106,184,NA,NA,NA,NA,NA,1,-479,157,1,0,0,0,"noise1",1,"[75,81]",1,1,-0.167354129672168,-3.17367101010668,-1.3151309769011,0.0527821854389695,0.622832640765298,1,4
12,254,"congruent",53,2,NA,0.7197,3,0.3161,0.7207,0.7566,0,2,87,56,98,88,143,242,NA,NA,NA,NA,NA,2,-487,185,1,0,0,0,"noise1",1,"(81,89]",3,3,-0.328920820468378,-3.56183049561702,0.303491763900253,-1.15169665976057,-1.52019111294665,1,4
12,255,"neutral",161,2,1,2.2745,3,0.7658,2.2754,0.7566,0,2,89,40,123,90,129,253,8,12,0,0,"incorrect",3,-379,212,0,1,0,0,"noise2",NA,"(81,89]",4,4,0.821760248027922,-0.797351200207122,0.303491763900253,-0.266834239938943,0.0541671184182451,1,4
12,256,"neutral",167,1,1,2.3718,3,0.477,2.3728,0.7566,0,2,99,39,83,100,138,222,10,9,0,0,"incorrect",3,-373,182,0,1,0,0,"noise2",NA,"(89,103]",2,2,0.863649160548558,-0.696714251758964,0.303491763900253,-0.740238788093796,-0.788120146197894,2,4
12,257,"congruent",151,2,NA,2.1242,3,0.4328,2.1252,0.7566,0,2,107,24,92,108,131,224,6,6,0,0,NA,2,-389,199,0,1,0,0,"noise2",1,"(103,195]",3,3,0.753395260905302,-0.961596182249298,0.303491763900253,-0.837479551449865,-0.961132122731709,1,4
12,258,"congruent",151,1,0,2.1333,3,1.1965,2.1347,0.7725,0,2,106,64,100,107,170,271,10,12,0,0,"correct",2,-389,206,0,0,1,0,"signal1",0,"(103,195]",3,4,0.757670076575445,-0.951326056377455,0.303491763900253,0.179400628366291,0.848113750460769,1,4
12,259,"congruent",181,2,1,2.5238,3,0.937,2.5248,0.7566,0,2,78,40,93,79,118,212,8,11,0,0,"incorrect",2,-359,171,0,1,0,0,"noise2",1,"[75,81]",3,2,0.925765702236673,-0.547480986260242,0.303491763900253,-0.0650719967437148,0.413145012876783,2,4
12,260,"congruent",115,2,1,1.6243,3,0.3651,1.6258,0.7566,1,2,76,45,81,77,121,203,13,14,0,0,"incorrect",2,-425,157,0,0,1,0,"signal1",1,"[75,81]",1,1,0.485076953743213,-1.60622345998696,0.303491763900253,-1.00758399032055,-1.26378405768647,1,4
12,261,"congruent",105,1,0,1.4766,3,0.5449,1.4777,0.7725,0,1,94,40,95,95,134,230,2,3,0,0,"correct",1,-435,189,0,0,1,0,"signal1",1,"(89,103]",3,3,0.389742147642928,-1.83526268276704,0.303491763900253,-0.607152987393084,-0.551332233051813,1,4
12,262,"incongruent",248,2,0,3.45,3,0.6694,3.4509,0.7725,0,1,95,24,83,96,119,203,17,18,13,10,"correct",2,-292,178,0,0,0,1,"signal2",1,"(89,103]",2,2,1.23837423104327,0.203552318375342,0.303491763900253,-0.401373490204911,-0.18520679028565,3,4
12,263,"congruent",281,2,0,3.8935,3,0.7943,3.8944,0.7566,0,2,97,42,103,98,139,243,20,20,10,9,"correct",2,-259,200,0,0,0,1,"signal2",1,"(89,103]",3,3,1.3593084960349,0.494093529861403,0.303491763900253,-0.230294055343051,0.119179869672539,3,4
12,264,"congruent",306,2,1,4.2837,3,0.5028,4.2846,0.7566,0,2,96,38,132,97,134,267,17,21,8,12,"incorrect",2,-234,228,0,0,0,1,"signal2",1,"(89,103]",4,4,1.45481712212222,0.723550350330755,0.303491763900253,-0.687562802266045,-0.694398376547084,4,4
12,265,"neutral",282,1,0,3.9406,2,0.8759,3.9414,0.7566,0,2,78,56,86,79,134,221,25,33,11,20,"correct",3,-258,164,0,0,0,1,"signal2",NA,"[75,81]",2,1,1.37133299597973,0.522982056878337,-1.3151309769011,-0.132503349813094,0.29317031016735,3,4
12,266,"congruent",174,1,1,2.4052,3,0.3442,2.4062,0.7725,0,1,86,35,95,87,121,217,13,4,0,0,"incorrect",1,-366,181,0,1,0,0,"noise2",1,"(81,89]",3,2,0.877633060183276,-0.663118321428948,0.303491763900253,-1.0665323952047,-1.36866579339619,2,4
12,267,"incongruent",347,1,0,4.8563,2,0.6604,4.8571,0.7566,0,2,140,42,88,141,182,271,26,32,20,18,"correct",1,-193,228,0,0,0,1,"signal2",1,"(103,195]",2,4,1.58027683109111,1.02496381523279,-1.3151309769011,-0.414909566936164,-0.209290346491519,4,4
12,268,"congruent",195,2,1,2.7174,3,0.4089,2.7182,0.7566,0,2,123,72,99,124,195,295,14,22,0,0,"incorrect",2,-345,222,0,0,1,0,"signal1",1,"(103,195]",3,4,0.999675540808086,-0.369914652675937,0.303491763900253,-0.89428465161154,-1.06220046400116,2,4
12,269,"incongruent",141,2,1,1.9783,3,0.3388,1.9792,0.7725,0,1,126,26,81,127,152,234,3,4,0,0,"incorrect",2,-399,207,0,0,1,0,"signal1",1,"(103,195]",1,4,0.682237890051909,-1.13254978861833,0.303491763900253,-1.08234531620424,-1.39680033926442,1,4
12,270,"neutral",187,2,0,2.6094,3,0.3641,2.6113,0.7566,0,2,90,43,80,91,133,214,11,10,0,0,"correct",3,-353,170,0,1,0,0,"noise2",NA,"(89,103]",1,2,0.959120309849511,-0.467347468227563,0.303491763900253,-1.01032672380075,-1.26866396323367,2,4
12,271,"congruent",381,1,1,5.2901,3,0.6676,5.2909,0.7725,0,1,110,90,104,111,200,305,46,36,19,19,"incorrect",1,-159,214,0,0,0,1,"signal2",1,"(103,195]",4,4,1.66583714928322,1.23052010239745,0.303491763900253,-0.404066087194457,-0.189997492364618,4,4
12,272,"neutral",280,1,0,3.8793,3,1.0459,3.8802,0.7566,0,2,82,53,85,83,135,221,23,33,13,17,"correct",3,-260,167,0,0,0,1,"signal2",NA,"(81,89]",2,1,1.35565472498778,0.485315446440647,0.303491763900253,0.0448777587780855,0.608768986462642,3,4
12,273,"congruent",362,2,1,5.0366,1,1.5064,5.0375,0.7566,0,2,82,64,78,83,146,225,46,54,30,39,"incorrect",2,-178,160,0,0,0,1,"signal2",1,"(81,89]",1,1,1.61673125126157,1.11254454680691,-2.93375371770245,0.409722698360806,1.25790564424914,4,4
12,274,"congruent",173,1,0,2.4322,2,1.316,2.4331,0.7566,0,2,97,46,93,98,143,237,10,13,0,0,"correct",2,-367,190,0,1,0,0,"noise2",0,"(89,103]",3,3,0.888796197564762,-0.636299194037497,-1.3151309769011,0.274596832903125,1.01748802249446,2,4
12,275,"neutral",193,2,1,2.6961,3,1.0627,2.6976,0.7566,0,2,119,29,81,120,148,230,4,10,0,0,"incorrect",3,-347,200,0,1,0,0,"noise2",NA,"(103,195]",1,3,0.9918062843503,-0.38882032266862,0.303491763900253,0.0608128393965124,0.63712088024534,2,4
12,276,"congruent",290,2,1,4.057,2,0.3715,4.0582,0.7725,0,1,76,49,83,77,125,209,29,36,19,22,"incorrect",1,-250,159,0,0,0,1,"signal2",0,"[75,81]",2,1,1.40044378422431,0.592919916793221,-1.3151309769011,-0.990206414824323,-1.23286565906224,3,4
13,1,"congruent",326,1,1,4.7061,NA,NA,4.7108,0.778,0,1,107,36,90,108,143,234,38,27,29,18,"incorrect",1,-214,197,0,0,0,1,"signal2",1,"(103,195]",3,3,1.54885953954817,0.839111116557096,NA,NA,NA,3,1
13,2,"congruent",250,2,1,3.6002,3,0.8466,3.601,0.6979,0,1,86,27,75,87,113,189,22,22,15,16,"incorrect",1,-290,161,0,0,0,1,"signal2",0,"(81,89]",1,1,1.28098939947447,0.416241678044637,0.10965682877822,-0.166526950895314,0.341438257581609,3,1
13,3,"congruent",311,1,1,4.4649,3,0.6459,4.4659,0.778,1,1,89,27,80,90,116,197,53,34,38,27,"incorrect",1,-229,169,0,0,0,1,"signal2",1,"(81,89]",1,1,1.49624681766109,0.756054781286277,0.10965682877822,-0.43711058594371,0.0178120121080949,3,1
13,4,"congruent",280,2,0,4.0564,3,0.4374,4.0571,0.6979,0,2,118,30,83,119,148,232,19,20,14,11,"correct",2,-260,201,0,0,0,1,"signal2",1,"(103,195]",2,3,1.4002958807557,0.604583180895284,0.10965682877822,-0.82690717073947,-0.44839654190622,3,1
13,5,"incongruent",277,2,0,4.0226,4,1.1324,4.0234,0.778,0,1,77,52,83,78,129,213,39,19,21,11,"correct",2,-263,160,0,0,0,1,"signal2",1,"[75,81]",2,1,1.39192845973698,0.591374069095774,1.44049197804116,0.124339274255608,0.689323096824789,3,1
13,6,"congruent",NA,NA,NA,NA,1,1.1953,7.7535,0.6979,0,2,87,28,78,88,115,194,93,95,89,85,NA,2,NA,165,NA,NA,NA,NA,NA,NA,"(81,89]",1,1,NA,NA,-2.55201346974766,0.178397199901798,0.75397801770289,NA,1
13,7,"incongruent",400,2,1,5.7169,2,0.8698,5.7179,0.778,0,2,130,26,90,131,156,247,33,56,28,49,"incorrect",1,-140,220,0,0,0,1,"signal2",0,"(103,195]",3,4,1.74342670043741,1.14626183539257,-1.22117832048472,-0.139491978818599,0.373772905270497,4,1
13,8,"congruent",435,2,1,6.2036,3,1.4348,6.2045,0.6979,0,1,121,60,92,122,181,274,50,61,33,48,"incorrect",1,-105,213,0,0,0,1,"signal2",0,"(103,195]",3,4,1.82512976870316,1.27524123784772,0.10965682877822,0.36102546667599,0.972406971408447,4,1
13,9,"neutral",NA,2,0,8.2438,1,0.7928,7.7432,0.778,1,1,86,58,90,87,144,235,114,85,96,66,"correct",3,NA,176,NA,NA,NA,NA,NA,NA,"(81,89]",3,2,2.109461402666,1.72409738273986,-2.55201346974766,-0.232184295966359,0.26291007878284,4,1
13,10,"congruent",431,2,0,6.1623,2,2.0516,6.1631,0.778,1,1,127,36,113,128,163,277,68,51,49,39,"correct",1,-109,240,0,0,0,1,"signal2",0,"(103,195]",4,4,1.8184500844811,1.26469644806396,-1.22117832048472,0.718619976532976,1.40010086577962,4,1
13,11,"congruent",396,2,0,5.6575,3,1.823,5.6585,0.6979,0,1,138,25,81,139,163,245,47,41,41,35,"correct",1,-144,219,0,0,0,1,"signal2",0,"(103,195]",1,4,1.73298209852556,1.12977361111817,0.10965682877822,0.600483495696526,1.25880604674995,4,1
13,12,"congruent",485,2,1,6.9805,4,0.9731,6.9813,0.6979,0,2,88,23,89,89,111,201,67,86,62,80,"incorrect",2,-55,177,0,0,0,1,"signal2",1,"(81,89]",2,2,1.94312054744657,1.46150572534582,1.44049197804116,-0.0272684271541938,0.50799568142752,4,1
13,13,"congruent",417,2,1,5.9911,4,2.7357,5.9922,0.6979,0,2,140,42,88,141,182,271,46,47,36,37,"incorrect",2,-123,228,0,0,0,1,"signal2",1,"(103,195]",2,4,1.79027503466671,1.22021830095957,1.44049197804116,1.00638734462559,1.744279377865,4,1
13,14,"congruent",187,1,0,2.6946,4,0.8876,2.6956,0.778,0,1,79,59,90,80,138,229,10,19,0,0,"correct",1,-353,169,0,1,0,0,"noise2",1,"[75,81]",3,1,0.99124977033961,-0.04115172255371,1.44049197804116,-0.119234087923698,0.398001958037699,2,1
13,15,"congruent",524,2,1,7.5332,3,0.4236,7.5339,0.6979,0,2,96,75,82,97,171,254,79,94,58,78,"incorrect",2,-16,178,0,0,0,1,"signal2",1,"(89,103]",2,2,2.01931991833845,1.58179679315648,0.10965682877822,-0.858965665254886,-0.48673947500231,4,1
13,16,"neutral",373,2,0,5.3492,3,0.8054,5.3501,0.6979,1,1,95,81,82,96,176,259,60,55,34,31,"correct",3,-167,177,0,0,0,1,"signal2",NA,"(89,103]",2,2,1.6769470170165,1.04131461584451,0.10965682877822,-0.216416230564783,0.281769163898539,4,1
13,17,"neutral",521,1,1,7.5155,2,0.8643,7.5164,0.6979,1,1,103,31,76,104,134,211,98,90,83,80,"incorrect",3,-19,179,0,0,0,1,"signal2",NA,"(89,103]",1,2,2.01696755459114,1.57808326712955,-1.22117832048472,-0.145835348223545,0.366186042806302,4,1
13,18,"congruent",373,2,0,5.3166,3,0.3733,5.3176,0.6979,0,2,95,50,83,96,145,229,51,46,39,33,"correct",2,-167,178,0,0,0,1,"signal2",1,"(89,103]",2,2,1.67083400129917,1.03166438934561,0.10965682877822,-0.985372893061599,-0.637926358601109,4,1
13,19,"neutral",360,2,0,5.2222,4,0.8983,5.2232,0.778,0,1,113,32,78,114,145,224,47,38,38,31,"correct",3,-180,191,0,0,0,1,"signal2",NA,"(103,195]",1,3,1.65291876904564,1.00338275929237,1.44049197804116,-0.107251190746976,0.412333866996288,4,1
13,20,"neutral",458,1,1,6.5494,2,0.4693,6.5505,0.778,0,1,112,58,95,113,170,266,72,53,63,34,"incorrect",3,-82,207,0,0,0,1,"signal2",NA,"(103,195]",3,4,1.87937344239791,1.36087225230809,-1.22117832048472,-0.756513056181765,-0.36420304293993,4,1
13,21,"neutral",280,1,1,4.0429,2,0.3991,4.0438,0.778,0,1,79,35,136,80,114,251,20,12,10,5,"incorrect",3,-260,215,0,0,0,1,"signal2",NA,"[75,81]",4,4,1.39696225624441,0.59932060132999,-1.22117832048472,-0.918543266927449,-0.557996096047258,3,1
13,22,"congruent",367,2,0,5.3026,2,0.8472,5.3033,0.778,0,1,105,47,90,106,152,243,51,34,37,25,"correct",1,-173,195,0,0,0,1,"signal2",0,"(103,195]",3,3,1.66819726630763,1.02750194464358,-1.22117832048472,-0.16581848469494,0.34228560467424,4,1
13,23,"congruent",NA,NA,NA,NA,1,0.6715,7.78,0.778,0,1,84,62,83,85,146,230,110,76,91,65,NA,1,NA,167,NA,NA,NA,NA,NA,NA,"(81,89]",2,1,NA,NA,-2.55201346974766,-0.398241263018845,0.0643009028350667,NA,1
13,24,"incongruent",NA,2,0,8.0215,1,0.4611,7.7353,0.6979,0,1,85,26,83,86,111,195,100,86,91,82,"correct",2,NA,168,NA,NA,NA,NA,NA,1,"(81,89]",2,1,2.08212543680899,1.68094384375276,-2.55201346974766,-0.774140339769477,-0.385285809472975,4,1
13,25,"neutral",332,2,0,4.7453,3,0.2715,4.7464,0.778,0,1,85,42,118,86,127,246,36,29,23,21,"correct",3,-208,203,0,0,0,1,"signal2",NA,"(81,89]",4,3,1.5571546545101,0.852206083414477,0.10965682877822,-1.30379313960815,-1.01876664428276,3,1
13,26,"neutral",364,1,1,5.2707,2,1.6849,5.2717,0.778,0,1,85,24,89,86,109,199,58,37,51,32,"incorrect",3,-176,174,0,0,0,1,"signal2",NA,"(81,89]",2,2,1.66216318105698,1.01797632061854,-1.22117832048472,0.521706214862203,1.16458602630982,4,1
13,27,"neutral",477,2,0,6.8136,3,0.5089,6.8144,0.778,0,1,98,79,111,99,177,289,70,63,45,49,"correct",3,-63,209,0,0,0,1,"signal2",NA,"(89,103]",4,4,1.91892061484473,1.42330284125967,0.10965682877822,-0.67550374538735,-0.267313446878052,4,1
13,28,"congruent",488,1,1,7.0569,3,0.3361,7.0577,0.778,0,1,195,35,108,196,230,339,46,46,41,34,"incorrect",1,-52,303,0,0,0,1,"signal2",1,"(103,195]",4,4,1.95400586159096,1.4786896738031,0.10965682877822,-1.09034654425108,-0.763478033601783,4,1
13,29,"congruent",290,1,1,4.206,3,1.6398,4.2068,0.778,0,1,93,29,98,94,122,221,29,20,22,13,"incorrect",1,-250,191,0,0,0,1,"signal2",1,"(89,103]",3,3,1.43651207728051,0.661755371439878,0.10965682877822,0.49457428317994,1.13213541198792,3,1
13,30,"incongruent",517,2,0,7.4031,3,1.0339,7.4042,0.778,0,1,89,29,87,90,118,206,99,71,88,68,"correct",2,-23,176,0,0,0,1,"signal2",1,"(81,89]",2,2,2.00189883140701,1.5542952386833,0.10965682877822,0.0333380596105104,0.580482880291166,4,1
13,31,"congruent",236,1,1,3.4038,3,0.4689,3.4048,0.778,0,1,99,30,76,100,129,206,19,12,8,8,"incorrect",1,-304,175,0,0,0,1,"signal2",1,"(89,103]",1,2,1.22489245457844,0.327685023003052,0.10965682877822,-0.757365752886596,-0.365222894096349,3,1
13,32,"incongruent",341,1,1,4.7928,3,0.3806,4.7935,0.6979,0,1,75,34,79,76,109,189,50,43,40,36,"incorrect",2,-199,154,0,0,0,1,"signal2",0,"[75,81]",1,1,1.56711479178758,0.867929514390684,0.10965682877822,-0.966006324120088,-0.614763353960699,3,1
13,33,"congruent",463,1,1,6.6676,3,0.4735,6.6691,0.6979,0,2,136,74,93,137,210,304,60,56,44,36,"incorrect",2,-77,229,0,0,0,1,"signal2",0,"(103,195]",3,4,1.8972599750868,1.38910857619624,0.10965682877822,-0.747603366356004,-0.353546783310153,4,1
13,34,"congruent",516,2,1,7.416,3,1.6442,7.417,0.6979,0,2,87,52,115,88,139,255,77,80,66,65,"incorrect",2,-24,202,0,0,0,1,"signal2",1,"(81,89]",4,3,2.00363982826355,1.55704363894536,0.10965682877822,0.497253943735896,1.1353403673974,4,1
13,35,"congruent",486,2,1,6.9649,3,1.7148,6.9659,0.778,0,2,101,38,105,102,139,245,66,74,56,65,"incorrect",2,-54,206,0,0,0,1,"signal2",1,"(89,103]",4,4,1.9408832496269,1.45797384653124,0.10965682877822,0.539296455741685,1.18562448863879,4,1
13,36,"incongruent",464,1,0,6.7309,1,0.5315,6.7319,0.6979,0,2,79,47,91,80,126,218,73,74,61,63,"correct",1,-76,170,0,0,0,1,"signal2",1,"[75,81]",3,2,1.90670886428473,1.40402493256428,-2.55201346974766,-0.632052081200134,-0.215343936830006,4,1
13,37,"neutral",359,2,0,5.1789,3,0.3018,5.1799,0.778,0,1,115,57,88,116,172,261,42,35,30,19,"correct",3,-181,203,0,0,0,1,"signal2",NA,"(103,195]",2,3,1.64459267850848,0.990238893277722,0.10965682877822,-1.19799073264839,-0.892223752210503,4,1
13,38,"congruent",273,1,1,3.8771,2,2.5381,3.8781,0.6979,0,1,112,27,96,113,139,236,19,13,11,8,"incorrect",1,-267,208,0,0,0,1,"signal2",1,"(103,195]",3,4,1.35508745149518,0.533215528300006,-1.22117832048472,0.931415769619224,1.65461109717903,3,1
13,39,"neutral",NA,NA,NA,NA,1,0.502,7.6966,0.778,0,1,81,35,120,82,116,237,86,83,79,73,NA,3,NA,201,NA,NA,NA,NA,NA,NA,"[75,81]",4,3,NA,NA,-2.55201346974766,-0.689155159290408,-0.283640952516231,NA,1
13,40,"congruent",173,2,1,2.546,2,1.8263,2.5471,0.778,0,1,99,34,110,100,133,244,7,10,0,0,"incorrect",1,-367,209,0,1,0,0,"noise2",0,"(89,103]",4,4,0.934523500135215,-0.130701853164158,-1.22117832048472,0.602292062215859,1.26096914723545,2,1
13,41,"congruent",340,1,1,4.8861,3,0.4076,4.8868,0.778,0,1,94,27,80,95,121,202,44,39,37,33,"incorrect",1,-200,174,0,0,0,1,"signal2",1,"(89,103]",1,2,1.58639443926549,0.898365059395658,0.10965682877822,-0.897468977633567,-0.532790605999859,4,1
13,42,"congruent",206,1,1,2.9446,3,0.4012,2.9457,0.778,0,1,78,56,86,79,134,221,16,11,0,0,"incorrect",1,-334,164,0,1,0,0,"noise2",1,"[75,81]",2,1,1.07997298444917,0.0989099346478284,0.10965682877822,-0.913295222894357,-0.55171927599417,3,1
13,43,"congruent",289,2,0,4.1796,2,1.2968,4.1806,0.6979,0,2,95,89,91,96,184,276,28,23,5,2,"correct",2,-251,186,0,0,0,1,"signal2",1,"(89,103]",3,3,1.43021554817782,0.651815444109795,-1.22117832048472,0.259899691439329,0.851457472912036,3,1
13,44,"neutral",363,1,1,5.2273,3,1.846,5.2281,0.778,0,1,81,55,108,82,136,245,47,39,33,26,"incorrect",3,-177,189,0,0,0,1,"signal2",NA,"[75,81]",4,3,1.65389489238263,1.00492370270367,0.10965682877822,0.61302113608066,1.27380144543283,4,1
13,45,"congruent",412,2,0,5.8934,3,0.2432,5.8949,0.6979,0,1,99,61,85,100,160,246,64,50,52,32,"correct",1,-128,184,0,0,0,1,"signal2",0,"(89,103]",2,2,1.7738330806946,1.19426244099578,0.10965682877822,-1.41387112889013,-1.15042326266705,4,1
13,46,"congruent",479,2,1,6.911,4,0.5984,6.9122,0.6979,0,2,77,57,114,78,134,249,62,81,46,69,"incorrect",2,-61,191,0,0,0,1,"signal2",1,"[75,81]",4,3,1.93311434510926,1.4457095744092,1.44049197804116,-0.513495852321869,-0.0735470863940617,4,1
13,47,"congruent",488,1,1,6.981,3,2.4363,6.9819,0.778,0,1,79,32,79,80,111,191,94,71,86,63,"incorrect",1,-52,158,0,0,0,1,"signal2",1,"[75,81]",1,1,1.94319217298826,1.46161879600235,0.10965682877822,0.890480494974338,1.60565126544944,4,1
13,48,"congruent",379,1,0,5.409,2,1.1217,5.41,0.6979,0,2,86,33,142,87,119,262,35,40,26,33,"correct",2,-161,228,0,0,0,1,"signal2",0,"(81,89]",4,4,1.68806423288929,1.05886465271183,-1.22117832048472,0.114845391669041,0.67796812491044,4,1
13,49,"neutral",356,2,0,5.0847,3,0.8952,5.0856,0.778,0,1,82,26,117,83,108,226,45,33,37,29,"correct",3,-184,199,0,0,0,1,"signal2",NA,"(81,89]",4,3,1.62623603070998,0.961260428767326,0.10965682877822,-0.110708121984422,0.408199272245077,4,1
13,50,"incongruent",366,2,1,5.2721,3,0.8276,5.2728,0.778,0,2,76,32,102,77,108,211,45,48,39,39,"incorrect",1,-174,178,0,0,0,1,"signal2",0,"[75,81]",3,2,1.66242876515385,1.01839558122701,0.10965682877822,-0.189225333110749,0.314290303074345,4,1
13,51,"congruent",136,1,1,1.9707,3,2.1071,1.9722,0.778,0,1,86,31,77,87,117,195,8,7,0,0,"incorrect",1,-404,163,0,1,0,0,"noise2",1,"(81,89]",1,1,0.6783888095844,-0.535045288931151,0.10965682877822,0.745312594540625,1.4320260476042,2,1
13,52,"incongruent",406,2,0,5.8181,NA,NA,5.8191,0.778,0,1,92,32,140,93,124,265,46,40,36,35,"correct",2,-134,232,0,0,0,1,"signal2",1,"(89,103]",4,4,1.76097374796242,1.17396223578962,NA,NA,NA,4,1
13,53,"neutral",281,1,1,4.14,3,1.7499,4.1409,0.778,0,1,92,65,76,93,157,234,30,26,12,12,"incorrect",3,-259,168,0,0,0,1,"signal2",NA,"(89,103]",1,1,1.42069578783722,0.636787208006684,0.10965682877822,0.559558643445565,1.20985868052003,3,1
13,54,"neutral",NA,NA,NA,NA,1,1.8312,7.7478,0.778,0,1,79,24,79,80,103,183,99,92,93,86,NA,3,NA,158,NA,NA,NA,NA,NA,NA,"[75,81]",1,1,NA,NA,-2.55201346974766,0.60497148965622,1.26417382383161,NA,1
13,55,"congruent",75,1,NA,1.1113,2,2.5016,1.1123,0.6979,0,1,85,43,80,86,128,209,NA,NA,NA,NA,NA,1,-465,165,1,0,0,0,"noise1",1,"(81,89]",1,1,0.105530501209464,-1.43938002046583,-1.22117832048472,0.916930527161494,1.63728630726508,1,1
13,56,"neutral",164,2,NA,2.398,3,1.4104,2.3994,0.778,0,1,82,69,100,83,151,252,17,17,0,0,NA,3,-376,182,0,1,0,0,"noise2",NA,"(81,89]",3,2,0.874635056605323,-0.225243904330827,0.10965682877822,0.343873352101523,0.951892521446705,2,1
13,57,"congruent",340,1,0,4.9002,NA,NA,4.9012,0.6979,1,2,76,24,78,77,100,179,52,56,43,46,"correct",2,-200,154,0,0,0,1,"signal2",0,"[75,81]",1,1,1.58927602061015,0.90291402735793,NA,NA,NA,4,1
13,58,"incongruent",380,2,0,5.4592,3,1.3333,5.4601,0.6979,0,1,115,58,78,116,173,252,54,40,37,28,"correct",2,-160,193,0,0,0,1,"signal2",1,"(103,195]",1,3,1.69730225887517,1.07344813282849,0.10965682877822,0.287657072139276,0.884656143254742,4,1
13,59,"congruent",396,2,0,5.7192,3,0.7553,5.7202,0.6979,0,1,80,24,130,81,104,235,50,42,48,33,"correct",1,-144,210,0,0,0,1,"signal2",0,"[75,81]",4,4,1.7438289354705,1.14689681808437,0.10965682877822,-0.280640257662735,0.204955276927208,4,1
13,60,"neutral",361,1,1,5.2231,2,1.4642,5.2239,0.778,0,1,90,91,86,91,181,268,54,38,26,21,"incorrect",3,-179,176,0,0,0,1,"signal2",NA,"(89,103]",2,2,1.6530910953555,1.00365479980377,-1.22117832048472,0.381309018230405,0.996666715103772,4,1
13,61,"congruent",143,1,0,2.1135,3,0.3617,2.1143,0.778,0,1,101,41,76,102,142,219,7,13,0,0,"correct",1,-397,177,0,1,0,0,"noise2",1,"(89,103]",1,2,0.748345341024708,-0.424609392036099,0.10965682877822,-1.01694014002408,-0.675681744704106,2,1
13,62,"incongruent",139,2,1,2.0452,3,1.1467,2.0459,0.778,0,1,84,82,195,85,166,362,13,14,0,0,"incorrect",2,-401,279,0,0,1,0,"signal1",1,"(81,89]",4,4,0.715495584223707,-0.476467199740564,0.10965682877822,0.136888252062122,0.70433205540917,2,1
13,63,"congruent",71,1,NA,1.0644,3,0.2951,1.0653,0.778,0,1,89,25,87,90,114,202,NA,NA,NA,NA,NA,1,-469,176,1,0,0,0,"noise1",1,"(81,89]",2,2,0.0624112601213971,-1.50744960546316,0.10965682877822,-1.22044099703324,-0.919074950256752,1,1
13,64,"congruent",92,1,NA,1.3634,3,0.2777,1.3649,0.778,0,1,85,24,76,86,109,186,2,2,0,0,NA,1,-448,161,0,0,1,0,"signal1",1,"(81,89]",1,1,0.309981579946548,-1.11662619338742,0.10965682877822,-1.28121388466938,-0.991761169616433,1,1
13,65,"congruent",211,1,1,3.0906,4,0.687,3.0914,0.778,0,1,78,28,79,79,106,186,16,10,8,5,"incorrect",1,-329,157,0,0,0,1,"signal2",1,"[75,81]",1,1,1.12836524681746,0.175303700710722,1.44049197804116,-0.375420986759788,0.091594646320574,3,1
13,66,"congruent",189,2,0,2.7331,2,0.8753,2.7339,0.778,0,1,81,143,141,82,224,366,35,19,0,0,"correct",1,-351,222,0,0,1,0,"signal1",0,"[75,81]",4,4,1.00543649610457,-0.0187560469591588,-1.22117832048472,-0.133188594243745,0.381311944663515,2,1
13,67,"congruent",140,2,0,2.0656,3,0.6877,2.0671,0.6979,0,1,76,50,86,77,126,213,14,10,0,0,"correct",1,-400,162,0,1,0,0,"noise2",0,"[75,81]",2,1,0.725420741110241,-0.460798990067766,0.10965682877822,-0.374402582656347,0.0928126885584665,2,1
13,68,"neutral",296,2,0,4.2786,3,0.7539,4.2794,0.6979,1,1,85,28,91,86,113,205,44,34,33,22,"correct",3,-244,176,0,0,0,1,"signal2",NA,"(81,89]",3,2,1.45362585328018,0.688771793822068,0.10965682877822,-0.282495545764481,0.202736296010153,3,1
13,69,"congruent",346,2,1,4.9851,2,1.2892,4.9858,0.6979,0,2,78,28,80,79,106,187,44,49,36,44,"incorrect",2,-194,158,0,0,0,1,"signal2",1,"[75,81]",1,1,1.60645346339314,0.930030956414396,-1.22117832048472,0.254021870959146,0.844427421101146,4,1
13,70,"congruent",350,2,0,5.0373,3,0.8223,5.038,0.6979,0,2,84,25,120,85,109,230,38,35,33,28,"correct",2,-190,204,0,0,0,1,"signal2",1,"(81,89]",4,3,1.6168702242514,0.946475229800138,0.10965682877822,-0.195649987005287,0.306606221891888,4,2
13,71,"incongruent",294,1,1,4.2551,2,2.0539,4.2563,0.778,0,1,97,46,93,98,143,237,30,22,18,11,"incorrect",2,-246,190,0,0,0,1,"signal2",0,"(89,103]",3,3,1.44811826351181,0.680077314503596,-1.22117832048472,0.719740424829466,1.40144095597161,3,2
13,72,"neutral",509,2,0,7.3088,4,1.9774,7.3099,0.778,0,1,93,28,94,94,121,216,84,77,76,71,"correct",3,-31,187,0,0,0,1,"signal2",NA,"(89,103]",3,3,1.98907910159944,1.53405755207845,1.44049197804116,0.681782850480896,1.3560425442328,4,2
13,73,"congruent",475,2,1,6.9125,2,1.3788,6.9133,0.6979,0,2,104,67,77,105,171,249,68,78,52,61,"incorrect",2,-65,181,0,0,0,1,"signal2",1,"(103,195]",1,2,1.93333136684845,1.44605217273305,-1.22117832048472,0.321213555660573,0.924790716697622,4,2
13,74,"congruent",315,2,1,4.5186,4,2.2904,4.5194,0.6979,0,1,83,45,77,84,128,206,37,40,25,30,"incorrect",1,-225,160,0,0,0,1,"signal2",0,"(81,89]",1,1,1.50820221135322,0.774927995808803,1.44049197804116,0.828726474801768,1.53179158177799,3,2
13,75,"congruent",213,1,0,3.0642,3,1.3057,3.0653,0.6979,0,1,77,32,133,78,109,243,7,9,0,0,"correct",1,-327,210,0,1,0,0,"noise2",1,"[75,81]",4,4,1.11978652389952,0.161761020132493,0.10965682877822,0.266739295431856,0.859637847014229,3,2
13,76,"congruent",186,1,1,2.7627,3,0.4677,2.7642,0.778,0,1,91,24,101,92,115,217,8,4,0,0,"incorrect",1,-354,192,0,1,0,0,"noise2",1,"(89,103]",3,3,1.01620846241329,-0.00175103347242528,0.10965682877822,-0.759928214250297,-0.368287675712417,3,2
13,77,"neutral",206,2,0,2.9819,3,0.7678,2.9829,0.778,0,1,95,85,82,96,180,263,27,15,0,0,"correct",3,-334,177,0,1,0,0,"noise2",NA,"(89,103]",2,2,1.09256068123967,0.11878132558562,0.10965682877822,-0.26422599641544,0.224587231900144,3,2
13,78,"congruent",493,2,0,7.1098,2,1.3417,7.1108,0.6979,0,2,82,24,77,83,106,184,82,84,79,76,"correct",2,-47,159,0,0,0,1,"signal2",1,"(81,89]",1,1,1.96147411402429,1.49047932573028,-1.22117832048472,0.293937466614289,0.892167685790112,4,2
13,79,"neutral",141,1,1,2.0766,4,1.7007,2.0781,0.778,0,1,137,44,103,138,181,285,2,0,0,0,"incorrect",3,-399,240,0,0,1,0,"signal1",NA,"(103,195]",3,4,0.730731940887216,-0.45241453905393,1.44049197804116,0.531039931016231,1.1757494343064,2,2
13,80,"incongruent",481,2,0,6.9157,3,1.2455,6.9165,0.6979,1,1,102,31,125,103,133,259,85,64,72,52,"correct",2,-59,227,0,0,0,1,"signal2",1,"(89,103]",4,4,1.93379418920525,1.44678280075338,0.10965682877822,0.219537055720098,0.803182534729268,4,2
13,81,"congruent",128,1,NA,1.8692,3,0.6945,1.8699,0.778,0,1,92,44,84,93,136,221,9,9,0,0,NA,1,-412,176,0,0,1,0,"signal1",1,"(89,103]",2,2,0.625510531844134,-0.618520840223952,0.10965682877822,-0.364563116787739,0.104580988573923,2,2
13,82,"congruent",441,2,1,6.4316,3,1.0785,6.4326,0.6979,0,2,108,35,138,109,143,282,48,49,39,41,"incorrect",2,-99,246,0,0,0,1,"signal2",1,"(103,195]",4,4,1.86122334088812,1.33221984919859,0.10965682877822,0.075571186847074,0.630994983137777,4,2
13,83,"congruent",334,2,1,4.8117,3,0.2043,4.8125,0.6979,1,2,78,26,131,79,104,236,28,55,22,41,"incorrect",2,-206,209,0,0,0,1,"signal2",1,"[75,81]",4,4,1.5710504520293,0.874142489215489,0.10965682877822,-1.58816577715856,-1.35888495553754,3,2
13,84,"incongruent",310,1,1,4.4731,2,0.3691,4.474,0.778,0,1,122,38,86,123,160,247,28,22,17,15,"incorrect",2,-230,208,0,0,0,1,"signal2",0,"(103,195]",2,4,1.4980816805612,0.758951361861117,-1.22117832048472,-0.996687668946184,-0.651459174202643,3,2
13,85,"congruent",478,2,0,6.8796,NA,NA,6.8811,0.6979,0,2,114,46,89,115,160,250,69,68,59,56,"correct",2,-62,203,0,0,0,1,"signal2",1,"(103,195]",2,3,1.9285605107202,1.43852072763945,NA,NA,NA,4,2
13,86,"congruent",180,1,1,2.5956,2,0.3821,2.5964,0.778,0,1,91,27,112,92,118,231,7,6,0,0,"incorrect",1,-360,203,0,1,0,0,"noise2",1,"(89,103]",4,3,0.953817703764876,-0.100243329294438,-1.22117832048472,-0.962072924529283,-0.610058888587944,2,2
13,87,"congruent",366,2,0,5.2884,3,0.7416,5.2896,0.6979,0,2,109,25,92,110,134,227,43,39,35,35,"correct",2,-174,201,0,0,0,1,"signal2",1,"(103,195]",3,3,1.6655157426538,1.02326879494821,0.10965682877822,-0.298945264730492,0.183061932528739,4,2
13,88,"congruent",249,1,1,3.635,3,1.085,3.6358,0.778,0,1,83,30,109,84,113,223,17,11,7,6,"incorrect",1,-291,192,0,0,0,1,"signal2",1,"(81,89]",4,3,1.29060911098548,0.431427700660654,0.10965682877822,0.0815799869924228,0.638181690606217,3,2
13,89,"neutral",287,1,1,4.1362,2,1.34,4.137,0.778,0,1,93,42,139,94,135,275,16,11,4,2,"incorrect",3,-253,232,0,0,0,1,"signal2",NA,"(89,103]",4,4,1.41977749193644,0.635337553066249,-1.22117832048472,0.29266961396282,0.890651295512721,3,2
13,90,"congruent",221,1,1,3.1909,3,0.9104,3.192,0.778,0,1,87,34,89,88,121,211,14,8,4,1,"incorrect",1,-319,176,0,0,0,1,"signal2",1,"(81,89]",2,2,1.16030300866654,0.225721800379283,0.10965682877822,-0.0938712156100706,0.428336723626221,3,2
13,91,"congruent",88,1,NA,1.3082,3,0.2209,1.309,0.778,0,1,133,34,105,134,167,273,NA,NA,NA,NA,NA,1,-452,238,1,0,0,0,"noise1",1,"(103,195]",4,4,0.268652146544975,-1.18187032359078,0.10965682877822,-1.51004516855607,-1.26545033503061,1,2
13,92,"incongruent",118,2,1,1.748,3,0.8757,1.749,0.778,1,1,84,63,75,85,147,223,9,16,0,0,"incorrect",2,-422,159,0,0,1,0,"signal1",1,"(81,89]",1,1,0.558472277233344,-0.724349840344386,0.10965682877822,-0.132731712453958,0.381858389160158,2,2
13,93,"congruent",110,1,1,1.6337,3,0.2128,1.6344,0.778,0,1,79,30,106,80,109,216,11,4,0,0,"incorrect",1,-430,185,0,1,0,0,"noise2",1,"[75,81]",4,3,0.490847381050326,-0.831104933952462,0.10965682877822,-1.54740252151465,-1.31013086375754,1,2
13,94,"incongruent",172,2,1,2.5811,3,0.329,2.582,0.778,1,1,81,40,87,82,121,209,15,18,0,5,"incorrect",2,-368,168,0,1,0,0,"noise2",1,"[75,81]",2,1,0.948215664658529,-0.109086909735222,0.10965682877822,-1.11169752821677,-0.789014458880218,2,2
13,95,"incongruent",228,1,0,3.3194,3,0.8428,3.3203,0.778,0,1,78,37,80,79,115,196,17,18,7,10,"correct",2,-312,158,0,0,0,1,"signal2",0,"[75,81]",1,1,1.19978404370448,0.288047982438211,0.10965682877822,-0.171025597052103,0.336057740148708,3,2
13,96,"congruent",449,1,1,6.4292,3,0.8537,6.4303,0.778,0,1,77,51,81,78,128,210,84,61,65,55,"incorrect",1,-91,158,0,0,0,1,"signal2",1,"[75,81]",1,1,1.86085011371285,1.33163065935459,0.10965682877822,-0.158175434965876,0.35142692427896,4,2
13,97,"incongruent",414,2,1,5.9658,3,0.9576,5.9668,0.778,0,1,111,45,96,112,156,253,50,53,41,40,"incorrect",2,-126,207,0,0,0,1,"signal2",1,"(103,195]",3,4,1.78604316223195,1.21353771491197,0.10965682877822,-0.0433251247383737,0.488791383455315,4,2
13,98,"neutral",189,1,1,2.7405,3,1.725,2.7413,0.778,0,1,89,29,84,90,118,203,10,4,0,0,"incorrect",3,-351,173,0,1,0,0,"noise2",NA,"(81,89]",2,2,1.00814038550403,-0.0144875898932172,0.10965682877822,0.545227050483323,1.1927176600692,2,2
13,99,"congruent",140,2,1,2.0169,3,0.7318,2.0179,0.6979,1,2,78,25,103,79,103,207,8,15,0,3,"incorrect",2,-400,181,0,1,0,0,"noise2",1,"[75,81]",3,2,0.701561679160964,-0.498463763480543,0.10965682877822,-0.312248026397031,0.167151425554431,2,2
13,100,"congruent",124,1,NA,1.8202,2,0.9942,1.8212,0.6979,0,1,135,32,88,136,167,256,NA,NA,NA,NA,NA,1,-416,223,1,0,0,0,"noise1",1,"(103,195]",2,4,0.598946385161118,-0.660455957700349,-1.22117832048472,-0.00581688532156485,0.533652376968882,2,2
13,101,"incongruent",244,1,1,3.5166,3,0.319,3.5174,0.778,0,1,81,24,91,82,105,197,18,18,13,11,"incorrect",2,-296,172,0,0,0,1,"signal2",0,"[75,81]",3,2,1.2574946137283,0.379151964149246,0.10965682877822,-1.14256417619729,-0.825931907322745,3,2
13,102,"congruent",206,2,0,3.0577,3,0.4382,3.0592,0.6979,0,1,97,52,137,98,149,287,17,9,0,0,"correct",1,-334,234,0,1,0,0,"noise2",0,"(89,103]",4,4,1.11766299935891,0.158408747908696,0.10965682877822,-0.825079851820771,-0.446211012981549,3,2
13,103,"incongruent",370,2,0,5.339,3,1.7896,5.34,0.6979,0,1,114,25,79,115,139,219,45,43,39,37,"correct",2,-170,193,0,0,0,1,"signal2",1,"(103,195]",1,3,1.67503836951805,1.03830155624867,0.10965682877822,0.581992131193783,1.23668981319933,4,2
13,104,"congruent",396,2,NA,5.6334,3,0.7978,5.6349,0.6979,0,1,75,60,99,76,135,235,56,55,40,41,NA,1,-144,174,0,0,0,1,"signal2",0,"[75,81]",3,2,1.72871316751042,1.12303452306258,0.10965682877822,-0.225897339510831,0.270429469646202,4,2
13,105,"incongruent",424,1,1,6.0769,2,1.4271,6.0779,0.778,0,1,80,37,112,81,117,230,61,55,51,47,"incorrect",2,-116,192,0,0,0,1,"signal2",0,"[75,81]",4,3,1.80449469752992,1.24266597224219,-1.22117832048472,0.355644413124208,0.965971067931343,4,2
13,106,"congruent",88,1,NA,1.3174,4,0.6423,1.3184,0.778,0,2,126,26,81,127,152,234,NA,NA,NA,NA,NA,2,-452,207,1,0,0,0,"noise1",0,"(103,195]",1,4,0.275660097224455,-1.17080732056947,1.44049197804116,-0.44269979471839,0.0111271486624772,1,2
13,107,"congruent",155,1,NA,2.2428,4,0.6967,2.2435,0.6979,0,2,83,41,93,84,124,218,10,10,0,0,NA,2,-385,176,0,1,0,0,"noise2",0,"(81,89]",3,2,0.80772508526738,-0.330870391862344,1.44049197804116,-0.361400376946064,0.10836372148084,2,2
13,108,"neutral",527,2,0,7.5754,NA,NA,7.5764,0.778,0,1,143,31,109,144,174,284,81,56,68,54,"correct",3,-13,252,0,0,0,1,"signal2",NA,"(103,195]",4,4,2.02490615528181,1.59061542773436,NA,NA,NA,4,2
13,109,"congruent",112,1,1,1.6468,2,2.0173,1.6477,0.6979,0,2,90,31,84,91,121,206,7,4,0,0,"incorrect",2,-428,174,0,0,1,0,"signal1",0,"(89,103]",2,2,0.498834010913613,-0.818496952768125,-1.22117832048472,0.701759983658168,1.37993580224277,1,2
13,110,"congruent",136,1,1,1.9482,3,0.6457,1.9498,0.778,0,1,87,51,86,88,138,225,15,10,0,0,"incorrect",1,-404,173,0,0,1,0,"signal1",1,"(81,89]",2,2,0.666905869354718,-0.55317267142351,0.10965682877822,-0.437420279349716,0.017441609388745,2,2
13,111,"congruent",168,2,1,2.3881,3,0.5672,2.3891,0.6979,0,1,86,48,79,87,134,214,11,12,0,0,"incorrect",1,-372,165,0,1,0,0,"noise2",0,"(81,89]",1,1,0.87049807070048,-0.231774699089189,0.10965682877822,-0.567043303764219,-0.137591464620644,2,2
13,112,"congruent",149,1,0,2.1747,2,1.0535,2.1757,0.6979,0,2,83,43,97,84,126,224,10,11,0,0,"correct",2,-391,180,0,1,0,0,"noise2",0,"(81,89]",3,2,0.776890723992805,-0.379546623694241,-1.22117832048472,0.0521179542621068,0.602944204662824,2,2
13,113,"neutral",323,2,0,4.688,3,2.4855,4.6887,0.778,0,1,78,43,79,79,121,201,43,39,31,30,"correct",3,-217,157,0,0,0,1,"signal2",NA,"[75,81]",1,1,1.54500605227471,0.833027862935797,0.10965682877822,0.91047384655259,1.62956392115955,3,2
13,114,"incongruent",79,1,NA,1.1867,3,1.3835,1.1876,0.6979,0,2,105,33,81,106,138,220,NA,NA,NA,NA,NA,1,-461,186,1,0,0,0,"noise1",1,"(103,195]",1,3,0.171176345688956,-1.33574912906419,0.10965682877822,0.324616520244843,0.928860765692602,1,2
13,115,"congruent",95,1,0,1.3949,3,1.3688,1.3959,0.778,0,1,80,36,79,81,116,196,2,5,0,0,"correct",1,-445,159,0,0,1,0,"signal1",1,"[75,81]",1,1,0.332822728116053,-1.08056833528214,0.10965682877822,0.313934443595847,0.916084677592681,1,2
13,116,"congruent",90,1,1,1.3554,3,0.2045,1.3564,0.778,0,1,77,26,84,78,103,188,5,2,0,0,"incorrect",1,-450,161,0,0,1,0,"signal1",1,"[75,81]",2,1,0.304096613719876,-1.12591641275734,0.10965682877822,-1.58718730349928,-1.3577146713236,1,2
13,117,"congruent",79,1,NA,1.1881,3,0.4483,1.1889,0.778,0,1,109,40,101,110,149,251,NA,NA,NA,NA,NA,1,-461,210,1,0,0,0,"noise1",1,"(103,195]",3,4,0.172355392482105,-1.33388784338576,0.10965682877822,-0.802292627820743,-0.418956801001678,1,2
13,118,"congruent",55,1,NA,0.8283,3,0.1857,0.8295,0.778,0,1,97,51,92,98,148,241,NA,NA,NA,NA,NA,1,-485,189,1,0,0,0,"noise1",1,"(89,103]",3,3,-0.188379871377919,-1.90335750670158,0.10965682877822,-1.68362281062348,-1.47305446670833,1,2
13,119,"incongruent",60,1,NA,0.9201,3,0.2106,0.921,0.6979,0,1,96,73,88,97,169,258,NA,NA,NA,NA,NA,2,-480,184,1,0,0,0,"noise1",0,"(89,103]",2,2,-0.0832729191938215,-1.73743189124621,0.10965682877822,-1.55779467928226,-1.32256020007013,1,2
13,120,"congruent",87,1,1,1.2789,3,0.1981,1.2796,0.6979,0,2,84,35,82,85,119,202,1,0,0,0,"incorrect",2,-453,166,0,0,1,0,"signal1",0,"(81,89]",2,1,0.246000333457137,-1.21762929052568,0.10965682877822,-1.61898332527763,-1.39574367905454,1,2
13,121,"congruent",149,1,1,2.1812,4,0.7559,2.1827,0.778,0,1,87,38,84,88,125,210,15,4,0,0,"incorrect",1,-391,171,0,1,0,0,"noise2",1,"(81,89]",2,2,0.779875184069769,-0.374835247664566,1.44049197804116,-0.279846186684006,0.205905009934674,2,2
13,122,"neutral",196,2,0,2.7973,3,0.7258,2.7983,0.778,0,1,89,44,75,90,133,209,18,4,0,0,"correct",3,-344,164,0,1,0,0,"noise2",NA,"(81,89]",1,1,1.02865466624431,0.0178969915899582,0.10965682877822,-0.320480784203167,0.157304797179377,3,2
13,123,"incongruent",87,2,0,1.2794,3,0.329,1.2803,0.778,0,1,82,37,84,83,119,204,2,0,0,0,"correct",2,-453,166,0,0,1,0,"signal1",1,"(81,89]",2,1,0.2463912180339,-1.21701222607253,0.10965682877822,-1.11169752821677,-0.789014458880218,1,2
13,124,"incongruent",82,2,0,1.2399,3,0.2769,1.2407,0.778,0,1,76,45,81,77,121,203,2,1,0,0,"correct",2,-458,157,0,0,1,0,"signal1",1,"[75,81]",1,1,0.215030731203659,-1.26651901863154,0.10965682877822,-1.28409884880522,-0.995211674342781,1,2
13,125,"congruent",91,1,NA,1.33,2,1.2592,1.3307,0.6979,1,2,119,29,81,120,148,230,NA,NA,NA,NA,NA,2,-449,200,1,0,0,0,"noise1",0,"(103,195]",1,3,0.285178942233662,-1.15578052944141,-1.22117832048472,0.230476598681002,0.816266560357797,1,2
13,126,"congruent",169,1,1,2.4534,3,0.0483,2.4542,0.6979,0,1,79,48,101,80,127,229,15,9,0,0,"incorrect",1,-371,180,0,1,0,0,"noise2",1,"[75,81]",3,2,0.897474817616514,-0.189188236043559,0.10965682877822,-3.03032371832361,-3.08374965326984,2,2
13,127,"incongruent",102,1,1,1.4945,2,1.51,1.4953,0.778,0,1,81,31,78,82,112,191,7,4,0,0,"incorrect",2,-438,159,0,0,1,0,"signal1",0,"[75,81]",1,1,0.401791702741855,-0.971691431097264,-1.22117832048472,0.412109650826833,1.03350520714195,1,2
13,128,"congruent",323,2,0,4.6309,4,1.2544,4.6317,0.778,0,1,93,25,81,94,118,200,42,32,35,27,"correct",1,-217,174,0,0,0,1,"signal2",0,"(89,103]",1,2,1.53275123365718,0.813681965455612,1.44049197804116,0.226657370614006,0.811698647595047,3,2
13,129,"incongruent",372,2,1,5.3635,NA,NA,5.365,0.6979,0,1,75,38,89,76,113,203,50,54,40,45,"incorrect",2,-168,164,0,0,0,1,"signal2",1,"[75,81]",2,1,1.67961674705535,1.04552914771505,NA,NA,NA,4,2
13,130,"congruent",146,2,1,2.0738,3,0.8773,2.0752,0.6979,0,1,76,28,82,77,104,187,4,9,0,0,"incorrect",1,-394,158,0,1,0,0,"noise2",0,"[75,81]",2,1,0.729382673142041,-0.454544541650145,0.10965682877822,-0.130906269847799,0.384041673958047,2,2
13,131,"congruent",64,1,NA,0.9342,3,0.8016,0.9352,0.778,0,1,77,24,91,78,101,193,NA,NA,NA,NA,NA,1,-476,168,1,0,0,0,"noise1",1,"[75,81]",3,1,-0.0680647309141294,-1.7134236981835,0.10965682877822,-0.221145548651537,0.276112755831612,1,2
13,132,"neutral",159,1,0,2.3011,2,0.8401,2.3021,0.778,0,1,85,53,79,86,138,218,12,14,0,0,"correct",3,-381,164,0,1,0,0,"noise2",NA,"(81,89]",1,1,0.833387269474391,-0.290359144794506,-1.22117832048472,-0.174234346611336,0.332219978222221,2,2
13,133,"congruent",230,2,1,3.5029,3,0.2799,3.5036,0.778,0,1,117,48,75,118,165,241,11,13,0,0,"incorrect",1,-310,192,0,1,0,0,"noise2",0,"(103,195]",1,3,1.25359119684813,0.372989889854797,0.10965682877822,-1.27332288246073,-0.982323291315504,3,2
13,134,"congruent",174,2,NA,2.5252,3,1.1344,2.526,0.6979,0,2,76,49,83,77,125,209,12,12,0,0,NA,2,-366,159,0,1,0,0,"noise2",1,"[75,81]",2,1,0.926320267511333,-0.143651771257654,0.10965682877822,0.126103876795726,0.691433615055906,2,2
13,135,"congruent",103,1,NA,1.4853,3,0.5249,1.4861,0.778,0,2,195,71,115,196,266,382,NA,NA,NA,NA,NA,2,-437,310,1,0,0,0,"noise1",0,"(103,195]",4,4,0.39561677205335,-0.981439398796774,0.10965682877822,-0.644547510723883,-0.230288850041872,1,2
13,136,"congruent",111,2,NA,1.6294,3,2.6198,1.6304,0.778,0,2,87,56,98,88,143,242,6,6,0,0,NA,2,-429,185,0,0,1,0,"signal1",1,"(81,89]",3,3,0.488211848894404,-0.835265479814906,0.10965682877822,0.963097978981412,1.69250398180362,1,2
13,137,"incongruent",336,2,0,4.8134,3,0.0626,4.8144,0.6979,0,2,109,45,91,110,154,246,36,32,23,23,"correct",1,-204,200,0,0,0,1,"signal2",0,"(103,195]",3,3,1.57140369511617,0.874700131458699,0.10965682877822,-2.77099000087608,-2.77357865092071,3,2
13,138,"congruent",246,2,0,3.5588,2,1.1894,3.5596,0.6979,0,1,142,40,94,143,182,277,13,6,0,0,"correct",1,-294,236,0,1,0,0,"noise2",0,"(103,195]",3,4,1.26942340938848,0.397983190061772,-1.22117832048472,0.173448978290356,0.748059794372069,3,2
13,139,"congruent",99,1,1,1.4697,1,0.6708,1.4706,0.6979,0,1,76,54,126,77,130,257,7,4,0,0,"incorrect",1,-441,202,0,0,1,0,"signal1",1,"[75,81]",4,3,0.385058298330502,-0.998107385208029,-2.55201346974766,-0.399284249033083,0.0630534598852777,1,3
13,140,"neutral",153,2,1,2.234,2,1.1822,2.2349,0.778,0,1,94,40,95,95,134,230,9,10,0,0,"incorrect",3,-387,189,0,1,0,0,"noise2",NA,"(89,103]",3,3,0.803793700647009,-0.337076617037481,-1.22117832048472,0.167377109408132,0.740797654778851,2,3
