"subID","block","trial","image","imageIdx","cueIdx","cue_string","congruent","response","accuracy","RT","cueDuration","learningRound","tp","cueLevel","learning_quartile","logRT","zlogRT"
12,1,2," S2-19.jpg",2,1," purple","incongruent",2,1,2.9461,1.8667,1,0,0.2,1,1.08048226179564,1.65169691415831
12,1,3," S2-19.jpg",2,3," orange","neutral",2,1,2.3469,1.2667,1,0.5,0.5,1,0.853095308377008,0.236789260175302
12,1,4," S2-19.jpg",2,1," purple","incongruent",2,1,2.0662,1.3,1,0,0.2,1,0.725711171433208,-0.555854238706433
12,1,5," S2-19.jpg",2,3," orange","neutral",2,1,2.0665,1.5,1,0.5,0.5,1,0.72585635496965,-0.55495083904407
12,1,6," S1-15.jpg",1,1," purple","congruent",1,1,2.3728,1.25,1,1,0.8,1,0.86407069240153,0.305083217362505
12,1,7," S2-19.jpg",2,2," green","congruent",2,1,2.1595,1.25,1,1,0.8,1,0.769876713418619,-0.28103564222162
12,1,8," S1-15.jpg",1,2," green","incongruent",1,1,2.1862,1.5167,1,0,0.2,1,0.782164876877598,-0.20457295924836
12,1,9," S2-19.jpg",2,2," green","congruent",2,1,2.0929,1.35,1,1,0.8,1,0.738550664013795,-0.475960928855514
12,1,10," S1-15.jpg",1,1," purple","congruent",1,1,2.0262,1.3167,1,1,0.8,1,0.70616211763744,-0.677497567085234
12,1,11," S1-15.jpg",1,1," purple","congruent",1,1,1.9729,1.2667,1,1,0.8,1,0.679504541518787,-0.843373436038349
12,1,12," S1-15.jpg",1,1," purple","congruent",1,1,1.7463,1.2833,1,1,0.8,1,0.557499263963662,-1.60254716365874
12,1,13," S2-19.jpg",2,2," green","congruent",2,1,2.1472,1.55,1,1,0.8,1,0.764164667795226,-0.316578653599056
12,1,14," S2-19.jpg",2,3," orange","neutral",2,1,2.3728,1.7333,1,0.5,0.5,1,0.86407069240153,0.305083217362505
12,1,15," S2-19.jpg",2,2," green","congruent",2,1,2.2132,1.6,1,1,0.8,1,0.794439432041818,-0.1281949534306
12,1,16," S2-19.jpg",2,1," purple","incongruent",2,1,4.2256,3.25,1,0,0.2,1,1.44116126256073,3.89600984038822
12,1,17," S1-15.jpg",1,1," purple","congruent",1,1,2.0662,1.3833,1,1,0.8,1,0.725711171433208,-0.555854238706433
12,1,18," S1-15.jpg",1,3," orange","neutral",1,1,2.5616,1.8167,1,0.5,0.5,1,0.940632063260313,0.781483767169278
12,1,19," S2-19.jpg",2,2," green","congruent",2,1,2.1612,1.3,1,1,0.8,1,0.770663622987774,-0.276139123948912
12,1,20," S2-19.jpg",2,3," orange","neutral",2,1,2.2262,1.4333,1,0.5,0.5,2,0.800296096076988,-0.0917520588599784
12,1,21," S1-15.jpg",1,3," orange","neutral",1,1,1.9464,1.35,1,0.5,0.5,2,0.665981512487176,-0.927520028418408
12,1,22," S1-15.jpg",1,1," purple","congruent",1,1,2.7592,1.3,1,1,0.8,2,1.01494078264049,1.24386726907198
12,1,23," S1-15.jpg",1,3," orange","neutral",1,1,2.1995,1.25,1,0.5,0.5,2,0.788230061806637,-0.16683255044346
12,1,24," S1-15.jpg",1,1," purple","congruent",1,1,2.547,1.5833,1,1,0.8,2,0.93491619599732,0.745916975768232
12,1,25," S1-15.jpg",1,1," purple","congruent",1,1,2.946,1.6167,1,1,0.8,2,1.08044831804044,1.65148570028559
12,1,26," S1-15.jpg",1,2," green","incongruent",1,1,2.0805,1.25,1,0,0.2,2,0.732608249440859,-0.512937403257317
12,1,27," S1-15.jpg",1,3," orange","neutral",1,1,1.9195,1.3333,1,0.5,0.5,2,0.652064735458715,-1.0141167044383
12,1,28," S1-15.jpg",1,1," purple","congruent",1,1,2.4261,1.6833,1,1,0.8,2,0.886285029787749,0.44331118305434
12,1,29," S2-19.jpg",2,3," orange","neutral",2,1,1.893,1.3333,1,0.5,0.5,2,0.638162872227186,-1.10062057985943
12,1,30," S1-15.jpg",1,1," purple","congruent",1,1,1.9463,1.4,1,1,0.8,2,0.665930134266392,-0.927839727665623
12,1,31," S1-15.jpg",1,1," purple","congruent",1,1,2.0928,1.5333,1,1,0.8,2,0.738502882280742,-0.476258249079039
12,1,32," S1-15.jpg",1,3," orange","neutral",1,1,2.2662,1.5167,1,0.5,0.5,2,0.818104419964329,0.0190596363317754
12,1,33," S2-19.jpg",2,3," orange","neutral",2,1,2.5993,1.8833,1,0.5,0.5,2,0.955242178009096,0.872394713786185
12,1,34," S1-15.jpg",1,2," green","incongruent",1,1,2.5728,1.9167,1,0,0.2,2,0.94499480000251,0.808630749509478
12,1,35," S1-15.jpg",1,3," orange","neutral",1,1,1.9333,1.3167,1,0.5,0.5,2,0.659228387356319,-0.96954112194334
12,1,36," S1-15.jpg",1,1," purple","congruent",1,1,1.9063,1.4,1,1,0.8,2,0.645164190537794,-1.0570551126384
12,1,37," S2-19.jpg",2,3," orange","neutral",2,1,2.0544,1.4667,1,0.5,0.5,2,0.719983834513505,-0.591492399659792
12,1,38," S2-19.jpg",2,2," green","congruent",2,1,2.1596,1.4667,1,1,0.8,2,0.769923019361995,-0.280747505049619
12,1,39," S1-15.jpg",1,1," purple","congruent",1,1,2.5594,1.7833,1,1,0.8,3,0.939772856021359,0.776137379082903
12,1,40," S1-15.jpg",1,3," orange","neutral",1,1,2.1596,1.4167,1,0.5,0.5,3,0.769923019361995,-0.280747505049619
12,1,41," S2-19.jpg",2,3," orange","neutral",2,1,2.0396,1.3667,1,0.5,0.5,3,0.712753710198864,-0.636481604529434
12,1,42," S1-15.jpg",1,2," green","incongruent",1,1,1.9461,1.2667,1,0,0.2,3,0.665827369904982,-0.92847917544101
12,1,43," S2-19.jpg",2,2," green","congruent",2,1,2.213,1.5,1,1,0.8,3,0.794349061068913,-0.128757283763712
12,1,44," S2-19.jpg",2,3," orange","neutral",2,1,2.1072,1.4333,1,0.5,0.5,3,0.74536005200688,-0.433589741566606
12,1,45," S2-19.jpg",2,2," green","congruent",2,1,2.8275,1.6333,1,1,0.8,3,1.03939292900814,1.39601992572945
12,1,46," S2-19.jpg",2,3," orange","neutral",2,1,2.7726,1.8,1,0.5,0.5,3,1.01978550812214,1.27401341009884
12,1,47," S2-19.jpg",2,2," green","congruent",2,1,2.9066,1.7,1,1,0.8,3,1.06698401320993,1.56770451726772
12,1,48," S1-15.jpg",1,3," orange","neutral",1,1,2.6928,1.85,1,0.5,0.5,3,0.990581544454404,1.09229273044294
12,1,49," S1-15.jpg",1,3," orange","neutral",1,1,2.1595,1.45,1,0.5,0.5,3,0.769876713418619,-0.28103564222162
12,1,50," S2-19.jpg",2,2," green","congruent",2,1,2.6126,1.9333,1,1,0.8,3,0.960345894070326,0.904152414965707
12,1,51," S2-19.jpg",2,2," green","congruent",2,1,2.2795,1.4833,1,1,0.8,3,0.823956120671359,0.0554716467603209
12,1,52," S2-19.jpg",2,2," green","congruent",2,1,1.853,1.35,1,1,0.8,3,0.616805947303223,-1.23351332540241
12,1,53," S2-19.jpg",2,2," green","congruent",2,1,2.107,1.55,1,1,0.8,3,0.745265134822052,-0.434180360550184
12,1,54," S1-15.jpg",1,1," purple","congruent",1,1,2.3329,1.3667,1,1,0.8,3,0.847112128854456,0.199559127248428
12,1,55," S1-15.jpg",1,1," purple","congruent",1,1,2.2529,1.5333,1,1,0.8,3,0.81221827520096,-0.0175667010764665
12,1,56," S2-19.jpg",2,1," purple","incongruent",2,1,2.4795,1.8333,1,0,0.2,3,0.908056926947051,0.578786079345834
12,1,57," S1-15.jpg",1,3," orange","neutral",1,1,2.1728,1.3833,1,0.5,0.5,3,0.77601665838224,-0.242830041621184
12,1,58," S1-15.jpg",1,1," purple","congruent",1,1,2.054,1.45,1,1,0.8,4,0.719789111506366,-0.592704057008926
12,1,59," S1-15.jpg",1,2," green","incongruent",1,1,1.933,1.2833,1,0,0.2,4,0.659073200226194,-0.970506768630245
12,1,60," S1-15.jpg",1,1," purple","congruent",1,1,1.733,1.25,1,1,0.8,4,0.549854010733469,-1.65011949421424
12,1,61," S2-19.jpg",2,1," purple","incongruent",2,1,2.0929,1.3833,1,0,0.2,4,0.738550664013795,-0.475960928855514
12,1,62," S1-15.jpg",1,3," orange","neutral",1,1,2.5861,1.7167,1,0.5,0.5,4,0.950150949362257,0.840714715121852
12,1,63," S2-19.jpg",2,2," green","congruent",2,1,2.8534,1.9,1,1,0.8,4,1.04851126569858,1.45275846846872
12,1,64," S1-15.jpg",1,1," purple","congruent",1,1,1.7864,1.25,1,1,0.8,4,0.580202421543811,-1.46127753078497
12,1,65," S2-19.jpg",2,3," orange","neutral",2,1,2.2529,1.6667,1,0.5,0.5,4,0.81221827520096,-0.0175667010764665
12,1,66," S2-19.jpg",2,2," green","congruent",2,1,2.1619,1.4167,1,1,0.8,4,0.770987464678282,-0.274124029944222
12,1,67," S2-19.jpg",2,2," green","congruent",2,1,1.9996,1.3667,1,1,0.8,4,0.692947160557278,-0.759727192130405
12,1,68," S1-15.jpg",1,1," purple","congruent",1,1,2.2663,1.3333,1,1,0.8,4,0.818148545722748,0.0193342073763574
12,1,69," S2-19.jpg",2,3," orange","neutral",2,1,2.9861,1.7667,1,0.5,0.5,4,1.09396818817445,1.73561263653181
12,1,70," S2-19.jpg",2,3," orange","neutral",2,1,3.5465,1.75,1,0.5,0.5,4,1.26596120166,2.80583336623341
12,1,71," S2-19.jpg",2,2," green","congruent",2,1,2.3462,1.4833,1,1,0.8,4,0.852796998089483,0.234933034465187
12,1,72," S2-19.jpg",2,2," green","congruent",2,1,2.1868,1.65,1,1,0.8,4,0.782439288038707,-0.202865445046889
12,1,73," S1-15.jpg",1,1," purple","congruent",1,1,1.801,1.3167,1,1,0.8,4,0.588342066193819,-1.41062886628224
12,1,74," S1-15.jpg",1,3," orange","neutral",1,1,2.1063,1.2833,1,0.5,0.5,4,0.744932853709176,-0.436247968576125
12,1,75," S2-19.jpg",2,2," green","congruent",2,1,2.1064,1.5667,1,1,0.8,4,0.744980329199962,-0.43595255393478
13,1,1," S4-20.jpg",2,2," blue","congruent",2,1,1.9463,1.25,1,1,0.8,1,0.665930134266392,0.200554881691165
13,1,2," S4-20.jpg",2,1," red","incongruent",2,1,2.5461,1.8667,1,0,0.2,1,0.934562776661604,0.810701213355077
13,1,3," S4-20.jpg",2,3," yellow","neutral",2,1,1.6529,1.2667,1,0.5,0.5,1,0.502531320941171,-0.170573457961417
13,1,4," S4-20.jpg",2,1," red","incongruent",2,1,1.8401,1.3,1,0,0.2,1,0.609819917970192,0.0731115362483259
13,1,5," S4-20.jpg",2,3," yellow","neutral",2,1,1.8927,1.5,1,0.5,0.5,1,0.638004381062736,0.137127013341886
13,1,6," S3-12.jpg",1,1," red","congruent",1,1,1.9196,1.25,1,1,0.8,1,0.652116831001953,0.169180674000652
13,1,7," S4-20.jpg",2,2," blue","congruent",2,1,1.8663,1.25,1,1,0.8,1,0.623957861206947,0.105223099929734
13,1,8," S3-12.jpg",1,2," blue","incongruent",1,1,2.053,1.5167,1,0,0.2,1,0.719302138036796,0.321778914718973
13,1,9," S4-20.jpg",2,2," blue","congruent",2,1,1.9196,1.35,1,1,0.8,1,0.652116831001953,0.169180674000652
13,1,10," S3-12.jpg",1,1," red","congruent",1,1,1.8264,1.3167,1,1,0.8,1,0.602346816233449,0.0561378521488459
13,1,11," S3-12.jpg",1,1," red","congruent",1,1,1.7995,1.2667,1,1,0.8,1,0.587508848536948,0.0224363202774954
13,1,12," S3-12.jpg",1,1," red","congruent",1,1,1.853,1.2833,1,1,0.8,1,0.616805947303223,0.0889789309641713
13,1,13," S4-20.jpg",2,2," blue","congruent",2,1,0.5874,1.55,1,1,0.8,1,-0.532049260217617,-2.52042022556335
13,1,14," S4-20.jpg",2,3," yellow","neutral",2,1,0.5889,1.7333,1,0.5,0.5,1,-0.529498889031612,-2.51462755789032
13,1,15," S4-20.jpg",2,2," blue","congruent",2,1,0.8272,1.6,1,1,0.8,1,-0.189708775227972,-1.74286099361723
13,1,16," S4-20.jpg",2,1," red","incongruent",1,0,0.4555,3.25,1,0,0.2,1,-0.786359562282124,-3.09803617173239
13,1,17," S3-12.jpg",1,1," red","congruent",1,1,1.3538,1.3833,1,1,0.8,1,0.30291545309237,-0.623961729855306
13,1,18," S3-12.jpg",1,3," yellow","neutral",1,1,2.5463,1.8167,1,0.5,0.5,1,0.934641325086748,0.810879620688723
13,1,19," S4-20.jpg",2,2," blue","congruent",2,1,1.8529,1.3,1,1,0.8,1,0.616751979306232,0.0888563532494989
13,1,20," S4-20.jpg",2,3," yellow","neutral",1,0,1.3021,1.4333,1,0.5,0.5,2,0.263978345752546,-0.712399728294997
13,1,21," S3-12.jpg",1,3," yellow","neutral",1,1,1.3864,1.35,1,0.5,0.5,2,0.326710459419259,-0.569916042433181
13,1,22," S3-12.jpg",1,1," red","congruent",1,1,1.7728,1.3,1,1,0.8,2,0.572560217570828,-0.0115165614946224
13,1,23," S3-12.jpg",1,3," yellow","neutral",2,0,2.546,1.25,1,0.5,0.5,2,0.934523500135215,0.810612004432874
13,1,24," S3-12.jpg",1,1," red","congruent",1,1,1.8263,1.5833,1,1,0.8,2,0.602292062215859,0.0560134891426292
13,1,25," S3-12.jpg",1,1," red","congruent",1,1,0.9086,1.6167,1,1,0.8,2,-0.0958503256568342,-1.52967994387257
13,1,26," S3-12.jpg",1,2," blue","incongruent",1,1,2.5462,1.25,1,0,0.2,2,0.934602051645408,0.810790418773602
13,1,27," S3-12.jpg",1,3," yellow","neutral",1,1,2.0262,1.3333,1,0.5,0.5,2,0.70616211763744,0.291933936933804
13,1,28," S3-12.jpg",1,1," red","congruent",2,0,1.5102,1.6833,1,1,0.8,2,0.412242092387188,-0.375647722577142
13,1,29," S4-20.jpg",2,3," yellow","neutral",2,1,2.0796,1.3333,1,0.5,0.5,2,0.732175567527424,0.351018383569838
13,1,30," S3-12.jpg",1,1," red","congruent",1,1,1.8929,1.4,1,1,0.8,2,0.638110044630037,0.137367007399957
13,1,31," S3-12.jpg",1,1," red","congruent",1,1,2.2394,1.5333,1,1,0.8,2,0.80620797284396,0.519168464384237
13,1,32," S3-12.jpg",1,3," yellow","neutral",1,1,2.7194,1.5167,1,0.5,0.5,2,1.00041126773945,0.960263138959198
13,1,33," S4-20.jpg",2,3," yellow","neutral",2,1,2.4927,1.8833,1,0.5,0.5,2,0.913366460356908,0.762557940360461
13,1,34," S3-12.jpg",1,2," blue","incongruent",2,0,0.9642,1.9167,1,0,0.2,2,-0.0364565370106152,-1.3947786081935
13,1,35," S3-12.jpg",1,3," yellow","neutral",1,1,2.3462,1.3167,1,0.5,0.5,2,0.852796998089483,0.624986292760928
13,1,36," S3-12.jpg",1,1," red","congruent",1,1,2.2677,1.4,1,1,0.8,2,0.818766101984104,0.547691790362425
13,1,37," S4-20.jpg",2,3," yellow","neutral",2,1,2.053,1.4667,1,0.5,0.5,2,0.719302138036796,0.321778914718973
13,1,38," S4-20.jpg",2,2," blue","congruent",2,1,1.9995,1.4667,1,1,0.8,2,0.692897149304736,0.261805164437385
13,1,39," S3-12.jpg",1,1," red","congruent",1,1,1.0932,1.7833,1,1,0.8,3,0.0891091750717758,-1.10958073377761
13,1,40," S3-12.jpg",1,3," yellow","neutral",1,1,1.893,1.4167,1,0.5,0.5,3,0.638162872227186,0.137486994920177
13,1,41," S4-20.jpg",2,3," yellow","neutral",1,0,1.135,1.3667,1,0.5,0.5,3,0.126632650933366,-1.0243535218346
13,1,42," S3-12.jpg",1,2," blue","incongruent",2,0,0.955,1.2667,1,0,0.2,3,-0.0460439385014068,-1.41655450928146
13,1,43," S4-20.jpg",2,2," blue","congruent",2,1,0.2118,1.5,1,1,0.8,3,-1.55211284581483,-4.83729448651196
13,1,44," S4-20.jpg",2,3," yellow","neutral",1,0,1.3231,1.4333,1,0.5,0.5,3,0.279977468066228,-0.676060861571667
13,1,45," S4-20.jpg",2,2," blue","congruent",2,1,2.2928,1.6333,1,1,0.8,3,0.82977377809177,0.572693566532859
13,1,46," S4-20.jpg",2,3," yellow","neutral",2,1,2.4261,1.8,1,0.5,0.5,3,0.886285029787749,0.701047785188499
13,1,47," S4-20.jpg",2,2," blue","congruent",2,1,2.5727,1.7,1,1,0.8,3,0.94495593108792,0.834307224117924
13,1,48," S3-12.jpg",1,3," yellow","neutral",1,1,2.5061,1.85,1,0.5,0.5,3,0.918727759907572,0.774735080206989
13,1,49," S3-12.jpg",1,3," yellow","neutral",2,0,2.0529,1.45,1,0.5,0.5,3,0.719253427644425,0.321668278621459
13,1,50," S4-20.jpg",2,2," blue","congruent",2,1,2.6394,1.9333,1,1,0.8,3,0.970551618600592,0.892442805494133
13,1,51," S4-20.jpg",2,2," blue","congruent",2,1,1.9463,1.4833,1,1,0.8,3,0.665930134266392,0.200554881691165
13,1,52," S4-20.jpg",2,2," blue","congruent",2,1,2.0662,1.35,1,1,0.8,3,0.725711171433208,0.336335776392466
13,1,53," S4-20.jpg",2,2," blue","congruent",2,1,2.1061,1.55,1,1,0.8,3,0.7448378959653,0.379778377805117
13,1,54," S3-12.jpg",1,1," red","congruent",1,1,2.1062,1.3667,1,1,0.8,3,0.74488537596436,0.37988621930567
13,1,55," S3-12.jpg",1,1," red","congruent",1,1,2.3195,1.5333,1,1,0.8,3,0.841351645209661,0.598990419690714
13,1,56," S4-20.jpg",2,1," red","incongruent",2,1,2.4795,1.8333,1,0,0.2,3,0.908056926947051,0.750498377144368
13,1,57," S3-12.jpg",1,3," yellow","neutral",1,1,1.9595,1.3833,1,0.5,0.5,3,0.672689338657549,0.215907088062882
13,1,58," S3-12.jpg",1,1," red","congruent",1,1,1.9465,1.45,1,1,0.8,4,0.666032888068373,0.200788266788315
13,1,59," S3-12.jpg",1,2," blue","incongruent",1,1,1.9463,1.2833,1,0,0.2,4,0.665930134266392,0.200554881691165
13,1,60," S3-12.jpg",1,1," red","congruent",1,1,1.6667,1.25,1,1,0.8,4,0.510845623565993,-0.151689151119004
13,1,61," S4-20.jpg",2,1," red","incongruent",2,1,2.0129,1.3833,1,0,0.2,4,0.699576468324849,0.276975926865204
13,1,62," S3-12.jpg",1,3," yellow","neutral",1,1,2.4794,1.7167,1,0.5,0.5,4,0.90801659542191,0.750406771999526
13,1,63," S4-20.jpg",2,2," blue","congruent",2,1,2.5064,1.9,1,1,0.8,4,0.918847460655845,0.775006956967032
13,1,64," S3-12.jpg",1,1," red","congruent",1,1,2.0129,1.25,1,1,0.8,4,0.699576468324849,0.276975926865204
13,1,65," S4-20.jpg",2,3," yellow","neutral",2,1,2.3328,1.6667,1,0.5,0.5,4,0.847069262832202,0.611976866114889
13,1,66," S4-20.jpg",2,2," blue","congruent",2,1,2.1196,1.4167,1,1,0.8,4,0.75122739163647,0.394290863369739
13,1,67," S4-20.jpg",2,2," blue","congruent",2,1,1.9329,1.3667,1,1,0.8,4,0.659021465830569,0.184863197072294
13,1,68," S3-12.jpg",1,1," red","congruent",1,1,2.1462,1.3333,1,1,0.8,4,0.76369883651089,0.422617303048953
13,1,69," S3-12.jpg",1,3," yellow","neutral",1,1,2.5061,1.7667,1,0.5,0.5,4,0.918727759907572,0.774735080206989
13,1,70," S4-20.jpg",2,3," yellow","neutral",2,1,2.3341,1.75,1,0.5,0.5,4,0.847626377848004,0.613242243546968
13,1,71," S4-20.jpg",2,2," blue","congruent",2,1,2.5596,1.4833,1,1,0.8,4,0.939850996283168,0.822712366483608
13,1,72," S4-20.jpg",2,2," blue","congruent",2,1,2.3729,1.65,1,1,0.8,4,0.864112835815575,0.650687997575049
13,1,73," S3-12.jpg",1,1," red","congruent",1,1,2.1861,1.3167,1,1,0.8,4,0.782119134362209,0.464455394882947
13,1,74," S3-12.jpg",1,3," yellow","neutral",1,1,1.773,1.2833,1,0.5,0.5,4,0.572673027092071,-0.011260336804467
13,1,75," S4-20.jpg",2,2," blue","congruent",2,1,2.1861,1.5667,1,1,0.8,4,0.782119134362209,0.464455394882947
14,1,1," S4-20.jpg",2,2," green","congruent",2,1,2.2154,1.25,1,1,0.8,1,0.795432974100695,0.90131134813957
14,1,2," S4-20.jpg",2,1," purple","incongruent",2,1,2.7975,1.8667,1,0,0.2,1,1.02872616120394,1.33576568217974
14,1,3," S4-20.jpg",2,3," orange","neutral",2,1,1.9331,1.2667,1,0.5,0.5,1,0.659124931945509,0.647469303225323
14,1,4," S4-20.jpg",2,1," purple","incongruent",2,1,1.0811,1.3,1,0,0.2,1,0.0779790413165886,-0.434779835844592
14,1,5," S4-20.jpg",2,3," orange","neutral",2,1,0.5279,1.5,1,0.5,0.5,1,-0.638848407152566,-1.7697043384129
14,1,6," S3-12.jpg",1,1," purple","congruent",2,0,0.5078,1.25,1,1,0.8,1,-0.677667609711559,-1.84199607999845
14,1,7," S4-20.jpg",2,2," green","congruent",2,1,0.6638,1.25,1,1,0.8,1,-0.409774379696263,-1.34310720850879
14,1,8," S3-12.jpg",1,2," green","incongruent",2,0,0.5879,1.5167,1,0,0.2,1,-0.531198413573928,-1.56923124766234
14,1,9," S4-20.jpg",2,2," green","congruent",2,1,2.2666,1.35,1,1,0.8,1,0.818280911316711,0.94386032040331
14,1,10," S3-12.jpg",1,1," purple","congruent",1,1,2.1532,1.3167,1,1,0.8,1,0.766955107704665,0.848277941405336
14,1,11," S3-12.jpg",1,1," purple","congruent",1,1,2.2251,1.2667,1,1,0.8,1,0.799801858428485,0.909447379691525
14,1,12," S3-12.jpg",1,1," purple","congruent",1,1,2.3134,1.2833,1,1,0.8,1,0.838718303879164,0.981920213559591
14,1,13," S4-20.jpg",2,2," green","congruent",2,1,2.1997,1.55,1,1,0.8,1,0.788320987429541,0.888066926082994
14,1,14," S4-20.jpg",2,3," orange","neutral",2,1,2.3868,1.7333,1,0.5,0.5,1,0.86995355666579,1.04008861151621
14,1,15," S4-20.jpg",2,2," green","congruent",2,1,1.9861,1.6,1,1,0.8,1,0.686172916822609,0.697839887993871
14,1,16," S4-20.jpg",2,1," purple","incongruent",2,1,4.0541,3.25,1,0,0.2,1,1.39972871472114,2.02667170184066
14,1,17," S3-12.jpg",1,1," purple","congruent",1,1,2.4526,1.3833,1,1,0.8,1,0.897148686345789,1.09073321927765
14,1,18," S3-12.jpg",1,3," orange","neutral",2,0,1.0551,1.8167,1,0.5,0.5,1,0.0536355491659093,-0.480113931545616
14,1,19," S4-20.jpg",2,2," green","congruent",2,1,2.1991,1.3,1,1,0.8,1,0.788048185754665,0.887558896373877
14,1,20," S4-20.jpg",2,3," orange","neutral",2,1,2.2133,1.4333,1,0.5,0.5,2,0.794484614465862,0.899545248757509
14,1,21," S3-12.jpg",1,3," orange","neutral",1,1,2.0042,1.35,1,0.5,0.5,2,0.695244978642091,0.714734494412061
14,1,22," S3-12.jpg",1,1," purple","congruent",2,0,0.9126,1.3,1,1,0.8,2,-0.0914576104888349,-0.750316215779864
14,1,23," S3-12.jpg",1,3," orange","neutral",1,1,1.9979,1.25,1,0.5,0.5,2,0.692096628923766,0.708871424867749
14,1,24," S3-12.jpg",1,1," purple","congruent",1,1,2.3334,1.5833,1,1,0.8,2,0.84732643140762,0.997950850198169
14,1,25," S3-12.jpg",1,1," purple","congruent",1,1,2.3665,1.6167,1,1,0.8,2,0.861412070364166,1.02418207867244
14,1,26," S3-12.jpg",1,2," green","incongruent",1,1,2.5382,1.25,1,0,0.2,2,0.931455168393927,1.15462106785373
14,1,27," S3-12.jpg",1,3," orange","neutral",1,1,2.173,1.3333,1,0.5,0.5,2,0.776108701274293,0.865324381756837
14,1,28," S3-12.jpg",1,1," purple","congruent",1,1,2.199,1.6833,1,1,0.8,2,0.788002711572624,0.887474211279897
14,1,29," S4-20.jpg",2,3," orange","neutral",2,1,2.0384,1.3333,1,0.5,0.5,2,0.712165186395707,0.746244448400409
14,1,30," S3-12.jpg",1,1," purple","congruent",1,1,2.3372,1.4,1,1,0.8,2,0.848953631698145,1.00098113251095
14,1,31," S3-12.jpg",1,1," purple","congruent",1,1,2.0798,1.5333,1,1,0.8,2,0.732271735243995,0.783688222040756
14,1,32," S3-12.jpg",1,3," orange","neutral",1,1,2.2139,1.5167,1,0.5,0.5,2,0.794755666148042,0.900050019512001
14,1,33," S4-20.jpg",2,3," orange","neutral",1,0,0.4524,1.8833,1,0.5,0.5,2,-0.793188534740172,-2.05712695104612
14,1,34," S3-12.jpg",1,2," green","incongruent",2,0,1.7112,1.9167,1,0,0.2,2,0.537194878786059,0.420402920779158
14,1,35," S3-12.jpg",1,3," orange","neutral",1,1,2.5293,1.3167,1,0.5,0.5,2,0.927942584614603,1.1480796970338
14,1,36," S3-12.jpg",1,1," purple","congruent",1,1,1.0378,1.4,1,1,0.8,2,0.0371030879515023,-0.510901797732944
14,1,37," S4-20.jpg",2,3," orange","neutral",1,0,0.7072,1.4667,1,0.5,0.5,2,-0.346441767658703,-1.22516493969481
14,1,38," S4-20.jpg",2,2," green","congruent",2,1,2.157,1.4667,1,1,0.8,2,0.768718367407019,0.851561602746836
14,1,39," S3-12.jpg",1,1," purple","congruent",1,1,2.2467,1.7833,1,1,0.8,3,0.809462472941294,0.927438028697164
14,1,40," S3-12.jpg",1,3," orange","neutral",1,1,1.9087,1.4167,1,0.5,0.5,3,0.64642238205371,0.623813756647311
14,1,41," S4-20.jpg",2,3," orange","neutral",2,1,0.9004,1.3667,1,0.5,0.5,3,-0.10491616994956,-0.775379654452256
14,1,42," S3-12.jpg",1,2," green","incongruent",1,1,1.1559,1.2667,1,0,0.2,3,0.144879261318084,-0.31019372645672
14,1,43," S4-20.jpg",2,2," green","congruent",2,1,1.1692,1.5,1,1,0.8,3,0.156319754254954,-0.28888846760328
14,1,44," S4-20.jpg",2,3," orange","neutral",1,0,1.1562,1.4333,1,0.5,0.5,3,0.145138765666239,-0.309710459927776
14,1,45," S4-20.jpg",2,2," green","congruent",1,0,1.4223,1.6333,1,1,0.8,3,0.352275279594045,0.076033150210653
14,1,46," S4-20.jpg",2,3," orange","neutral",2,1,2.5161,1.8,1,0.5,0.5,3,0.922710083676338,1.13833538028488
14,1,47," S4-20.jpg",2,2," green","congruent",1,0,1.053,1.7,1,1,0.8,3,0.0516432331518384,-0.483824157025572
14,1,48," S3-12.jpg",1,3," orange","neutral",1,1,2.6383,1.85,1,0.5,0.5,3,0.970134770346266,1.22665283575832
14,1,49," S3-12.jpg",1,3," orange","neutral",2,0,0.6349,1.45,1,0.5,0.5,3,-0.454287772805733,-1.42600305643034
14,1,50," S4-20.jpg",2,2," green","congruent",2,1,1.3462,1.9333,1,1,0.8,3,0.297285808594476,-0.0263719577094762
14,1,51," S4-20.jpg",2,2," green","congruent",2,1,1.6105,1.4833,1,1,0.8,3,0.476544689789117,0.307456041372794
14,1,52," S4-20.jpg",2,2," green","congruent",1,0,1.1472,1.35,1,1,0.8,3,0.137324190863219,-0.324263289069548
14,1,53," S4-20.jpg",2,2," green","congruent",1,0,1.3164,1.55,1,1,0.8,3,0.274900738087048,-0.0680589483177473
14,1,54," S3-12.jpg",1,1," purple","congruent",1,1,1.9344,1.3667,1,1,0.8,3,0.659797200878391,0.648721247849844
14,1,55," S3-12.jpg",1,1," purple","congruent",1,1,0.4393,1.5333,1,1,0.8,3,-0.822572728000403,-2.11184818089726
14,1,56," S4-20.jpg",2,1," purple","incongruent",1,0,0.3877,1.8333,1,0,0.2,3,-0.947523434305254,-2.34453982770261
14,1,57," S3-12.jpg",1,3," orange","neutral",1,1,2.0354,1.3833,1,0.5,0.5,3,0.710692359775694,0.743501651166167
14,1,58," S3-12.jpg",1,1," purple","congruent",2,0,1.3637,1.45,1,1,0.8,4,0.310201593881651,-0.00231930977225991
14,1,59," S3-12.jpg",1,2," green","incongruent",1,1,0.9516,1.2833,1,0,0.2,4,-0.0496105005533344,-0.672385700515878
14,1,60," S3-12.jpg",1,1," purple","congruent",2,0,0.833,1.25,1,1,0.8,4,-0.182721636815294,-0.920274251296513
14,1,61," S4-20.jpg",2,1," purple","incongruent",1,0,0.4582,1.3833,1,0,0.2,4,-0.780449508962742,-2.03340347660962
14,1,62," S3-12.jpg",1,3," orange","neutral",1,1,1.2205,1.7167,1,0.5,0.5,4,0.199260610850878,-0.208921103416002
14,1,63," S4-20.jpg",2,2," green","congruent",2,1,0.923,1.9,1,1,0.8,4,-0.0801260444792849,-0.729213808009454
14,1,64," S3-12.jpg",1,1," purple","congruent",1,1,1.2116,1.25,1,1,0.8,4,0.191941800170945,-0.222550687114513
14,1,65," S4-20.jpg",2,3," orange","neutral",2,1,0.9,1.6667,1,0.5,0.5,4,-0.105360515657826,-0.776207145049669
14,1,66," S4-20.jpg",2,2," green","congruent",1,0,0.9754,1.4167,1,1,0.8,4,-0.0249076357061848,-0.626382356700686
14,1,67," S4-20.jpg",2,2," green","congruent",2,1,1.182,1.3667,1,1,0.8,4,0.167207918983906,-0.268611791653274
14,1,68," S3-12.jpg",1,1," purple","congruent",1,1,0.9295,1.3333,1,1,0.8,4,-0.0731084718206384,-0.716145210105472
14,1,69," S3-12.jpg",1,3," orange","neutral",1,1,1.1938,1.7667,1,0.5,0.5,4,0.177141496752412,-0.250112812031797
14,1,70," S4-20.jpg",2,3," orange","neutral",2,1,1.0268,1.75,1,0.5,0.5,4,0.0264471700148482,-0.530745968016008
14,1,71," S4-20.jpg",2,2," green","congruent",2,1,0.6731,1.4833,1,1,0.8,4,-0.39586137196547,-1.31719746556588
14,1,72," S4-20.jpg",2,2," green","congruent",1,0,1.1092,1.65,1,1,0.8,4,0.103639034759486,-0.386994062495904
14,1,73," S3-12.jpg",1,1," purple","congruent",2,0,1.0709,1.3167,1,1,0.8,4,0.0684994164246923,-0.452433433750719
14,1,74," S3-12.jpg",1,3," orange","neutral",1,1,0.9093,1.2833,1,0.5,0.5,4,-0.0950802062502699,-0.757062458345166
14,1,75," S4-20.jpg",2,2," green","congruent",1,0,0.9517,1.5667,1,1,0.8,4,-0.0495054199038393,-0.672190012231262
15,1,1," S4-20.jpg",2,2," blue","congruent",1,0,1.9996,1.25,1,1,0.8,1,0.692947160557278,-0.188542231980728
15,1,2," S4-20.jpg",2,1," red","incongruent",2,1,2.8826,1.8667,1,0,0.2,1,1.05869266466687,0.6339731936313
15,1,3," S4-20.jpg",2,3," yellow","neutral",2,1,2.1829,1.2667,1,0.5,0.5,1,0.78065426799818,0.00869997057642938
15,1,4," S4-20.jpg",2,1," red","incongruent",2,1,2.0828,1.3,1,0,0.2,1,0.733713142306607,-0.0968646899404721
15,1,5," S4-20.jpg",2,3," yellow","neutral",2,1,1.983,1.5,1,0.5,0.5,1,0.684610849537659,-0.207289542143923
15,1,6," S3-12.jpg",1,1," red","congruent",1,1,2.0163,1.25,1,1,0.8,1,0.701264148661893,-0.169838376611866
15,1,7," S4-20.jpg",2,2," blue","congruent",2,1,1.8497,1.25,1,1,0.8,1,0.615023463778366,-0.363782780124733
15,1,8," S3-12.jpg",1,2," blue","incongruent",1,1,2.3829,1.5167,1,0,0.2,1,0.868318233325059,0.205845151970297
15,1,9," S4-20.jpg",2,2," blue","congruent",2,1,2.0001,1.35,1,1,0.8,1,0.693197179309987,-0.187979971396566
15,1,10," S3-12.jpg",1,1," red","congruent",1,1,2.0332,1.3167,1,1,0.8,1,0.70961090659061,-0.151067572670111
15,1,11," S3-12.jpg",1,1," red","congruent",1,1,1.9329,1.2667,1,1,0.8,1,0.659021465830569,-0.264836832799558
15,1,12," S3-12.jpg",1,1," red","congruent",1,1,2.0497,1.2833,1,1,0.8,1,0.717693440977946,-0.132890974087423
15,1,13," S4-20.jpg",2,2," blue","congruent",2,1,2.5494,1.55,1,1,0.8,1,0.935858037366684,0.357733637386662
15,1,15," S4-20.jpg",2,2," blue","congruent",2,1,2.3495,1.6,1,1,0.8,1,0.854202539560733,0.174100740258008
15,1,16," S4-20.jpg",2,1," red","incongruent",2,1,4.0323,3.25,1,0,0.2,1,1.39433693276308,1.38879474283802
15,1,17," S3-12.jpg",1,1," red","congruent",1,1,2.6493,1.3833,1,1,0.8,1,0.974295454160729,0.444174531064219
15,1,18," S3-12.jpg",1,3," yellow","neutral",1,1,2.8493,1.8167,1,0.5,0.5,1,1.0470733500774,0.607842823257678
15,1,19," S4-20.jpg",2,2," blue","congruent",2,1,2.3838,1.3,1,1,0.8,1,0.868695853066471,0.206694371055254
15,1,21," S3-12.jpg",1,3," yellow","neutral",1,1,1.9828,1.35,1,0.5,0.5,2,0.684509987164282,-0.207516368877361
15,1,22," S3-12.jpg",1,1," red","congruent",1,1,2.1663,1.3,1,1,0.8,2,0.773020643143109,-0.00846708718937164
15,1,23," S3-12.jpg",1,3," yellow","neutral",1,1,2.0676,1.25,1,0.5,0.5,2,0.726388514339747,-0.113336852747445
15,1,24," S3-12.jpg",1,1," red","congruent",1,1,2.2995,1.5833,1,1,0.8,2,0.832691707997842,0.125725598036385
15,1,25," S3-12.jpg",1,1," red","congruent",1,1,2.3328,1.6167,1,1,0.8,2,0.847069262832202,0.158058902208187
15,1,26," S3-12.jpg",1,2," blue","incongruent",1,1,1.9662,1.25,1,0,0.2,2,0.676102745950687,-0.226423192084546
15,1,27," S3-12.jpg",1,3," yellow","neutral",1,1,2.2329,1.3333,1,0.5,0.5,2,0.803301189051838,0.0596300345141944
15,1,28," S3-12.jpg",1,1," red","congruent",1,1,2.3662,1.6833,1,1,0.8,2,0.861285292837425,0.190028957448445
15,1,29," S4-20.jpg",2,3," yellow","neutral",2,1,2.7827,1.3333,1,0.5,0.5,2,1.0234216793922,0.554653204351948
15,1,30," S3-12.jpg",1,1," red","congruent",1,1,2.3161,1.4,1,1,0.8,2,0.839884736671529,0.141901810661011
15,1,31," S3-12.jpg",1,1," red","congruent",1,1,2.1832,1.5333,1,1,0.8,2,0.780791690411992,0.00900901622132469
15,1,32," S3-12.jpg",1,3," yellow","neutral",1,1,2.6158,1.5167,1,0.5,0.5,2,0.961569978072915,0.415556543247893
15,1,33," S4-20.jpg",2,3," yellow","neutral",1,0,3.8832,1.8833,1,0.5,0.5,2,1.3566595559902,1.30406308313455
15,1,34," S3-12.jpg",1,2," blue","incongruent",1,1,2.6661,1.9167,1,0,0.2,2,0.980616730430402,0.458390282680959
15,1,35," S3-12.jpg",1,3," yellow","neutral",1,1,2.0997,1.3167,1,0.5,0.5,2,0.741794477381467,-0.078690788460005
15,1,36," S3-12.jpg",1,1," red","congruent",1,1,2.0662,1.4,1,1,0.8,2,0.725711171433208,-0.11486011135978
15,1,37," S4-20.jpg",2,3," yellow","neutral",1,0,2.2328,1.4667,1,0.5,0.5,2,0.803256403239975,0.059529316882149
15,1,38," S4-20.jpg",2,2," blue","congruent",2,1,2.4328,1.4667,1,1,0.8,2,0.889042857381018,0.252452212848696
15,1,39," S3-12.jpg",1,1," red","congruent",1,1,2.5675,1.7833,1,1,0.8,3,0.942932662820576,0.373643576130599
15,1,40," S3-12.jpg",1,3," yellow","neutral",1,1,2.75,1.4167,1,0.5,0.5,3,1.01160091167848,0.528069791356114
15,1,41," S4-20.jpg",2,3," yellow","neutral",2,1,2.1829,1.3667,1,0.5,0.5,3,0.78065426799818,0.00869997057642938
15,1,42," S3-12.jpg",1,2," blue","incongruent",1,1,2.2495,1.2667,1,0,0.2,3,0.81070796929909,0.0762869474195629
15,1,43," S4-20.jpg",2,2," blue","congruent",2,1,2.716,1.5,1,1,0.8,3,0.99916020969645,0.500092224521564
15,1,44," S4-20.jpg",2,3," yellow","neutral",2,1,2.2495,1.4333,1,0.5,0.5,3,0.81070796929909,0.0762869474195629
15,1,45," S4-20.jpg",2,2," blue","congruent",2,1,2.3328,1.6333,1,1,0.8,3,0.847069262832202,0.158058902208187
15,1,46," S4-20.jpg",2,3," yellow","neutral",2,1,2.5994,1.8,1,0.5,0.5,3,0.955280649165351,0.401412637211883
15,1,47," S4-20.jpg",2,2," blue","congruent",2,1,2.4328,1.7,1,1,0.8,3,0.889042857381018,0.252452212848696
15,1,48," S3-12.jpg",1,3," yellow","neutral",1,1,2.8327,1.85,1,0.5,0.5,3,1.04123032042997,0.59470258786635
15,1,49," S3-12.jpg",1,3," yellow","neutral",1,1,2.7343,1.45,1,0.5,0.5,3,1.00587546161624,0.515193977595325
15,1,50," S4-20.jpg",2,2," blue","congruent",2,1,3.1494,1.9333,1,1,0.8,3,1.14721195850417,0.833041900771588
15,1,51," S4-20.jpg",2,2," blue","congruent",2,1,2.3494,1.4833,1,1,0.8,3,0.854159976407649,0.174005021104713
15,1,52," S4-20.jpg",2,2," blue","congruent",2,1,1.9996,1.35,1,1,0.8,3,0.692947160557278,-0.188542231980728
15,1,53," S4-20.jpg",2,2," blue","congruent",2,1,2.3995,1.55,1,1,0.8,3,0.875260382316163,0.221457167888255
15,1,54," S3-12.jpg",1,1," red","congruent",1,1,2.1843,1.3667,1,1,0.8,3,0.781295411086638,0.0101418203718639
15,1,55," S3-12.jpg",1,1," red","congruent",1,1,2.6493,1.5333,1,1,0.8,3,0.974295454160729,0.444174531064219
15,1,56," S4-20.jpg",2,1," red","incongruent",2,1,2.4161,1.8333,1,0,0.2,3,0.882154669944473,0.236961549648725
15,1,57," S3-12.jpg",1,3," yellow","neutral",1,1,2.2996,1.3833,1,0.5,0.5,3,0.832735194766999,0.125823394285525
15,1,58," S3-12.jpg",1,1," red","congruent",1,1,2.3328,1.45,1,1,0.8,4,0.847069262832202,0.158058902208187
15,1,59," S3-12.jpg",1,2," blue","incongruent",1,1,2.0665,1.2833,1,0,0.2,4,0.72585635496965,-0.114533611930732
15,1,60," S3-12.jpg",1,1," red","congruent",1,1,2.0008,1.25,1,1,0.8,4,0.693547100581272,-0.187193042671133
15,1,61," S4-20.jpg",2,1," red","incongruent",2,1,2.8493,1.3833,1,0,0.2,4,1.0470733500774,0.607842823257678
15,1,62," S3-12.jpg",1,3," yellow","neutral",1,1,2.5016,1.7167,1,0.5,0.5,4,0.916930527161494,0.315168058487481
15,1,63," S4-20.jpg",2,2," blue","congruent",1,0,2.5828,1.9,1,1,0.8,4,0.948874081770175,0.387005076630697
15,1,64," S3-12.jpg",1,1," red","congruent",1,1,1.9497,1.25,1,1,0.8,4,0.667675514586276,-0.245374970615097
15,1,65," S4-20.jpg",2,3," yellow","neutral",2,1,2.1829,1.6667,1,0.5,0.5,4,0.78065426799818,0.00869997057642938
15,1,66," S4-20.jpg",2,2," blue","congruent",2,1,2.0829,1.4167,1,1,0.8,4,0.7337611534452,-0.096756718956139
15,1,67," S4-20.jpg",2,2," blue","congruent",2,1,1.9846,1.3667,1,1,0.8,4,0.685417382498004,-0.205475751424162
15,1,68," S3-12.jpg",1,1," red","congruent",1,1,2.0829,1.3333,1,1,0.8,4,0.7337611534452,-0.096756718956139
15,1,69," S4-20.jpg",2,3," yellow","neutral",2,1,2.4494,1.7667,1,0.5,0.5,4,0.89584309660505,0.267745091631267
15,1,70," S4-20.jpg",2,3," yellow","neutral",2,1,2.233,1.75,1,0.5,0.5,4,0.803345972858021,0.0597307476357216
15,1,71," S4-20.jpg",2,2," blue","congruent",2,1,2.1663,1.4833,1,1,0.8,4,0.773020643143109,-0.00846708718937164
15,1,72," S4-20.jpg",2,2," blue","congruent",1,0,0.3413,1.65,1,1,0.8,4,-1.07499342306948,-4.16441721953172
15,1,73," S3-12.jpg",1,1," red","congruent",1,1,2.0995,1.3167,1,1,0.8,4,0.741699221142111,-0.0789050077063812
15,1,74," S3-12.jpg",1,3," yellow","neutral",1,1,1.7329,1.2833,1,0.5,0.5,4,0.549796305664063,-0.510470417060865
15,1,75," S4-20.jpg",2,2," blue","congruent",1,0,0.1114,1.5667,1,1,0.8,4,-2.19462795148895,-6.68233380449387
16,1,1," S2-19.jpg",2,2," green","congruent",2,1,2.9341,1.25,1,1,0.8,1,1.07640076230289,1.10760184178239
16,1,2," S2-19.jpg",2,1," purple","incongruent",2,1,3.0662,1.8667,1,0,0.2,1,1.12043900989422,1.22511863112318
16,1,3," S2-19.jpg",2,3," orange","neutral",2,1,2.2328,1.2667,1,0.5,0.5,1,0.803256403239975,0.378711618867572
16,1,4," S2-19.jpg",2,1," purple","incongruent",2,1,1.9662,1.3,1,0,0.2,1,0.676102745950687,0.0393999892077521
16,1,5," S2-19.jpg",2,3," orange","neutral",2,1,1.9496,1.5,1,0.5,0.5,1,0.667624223328859,0.0167749118859512
16,1,6," S1-15.jpg",1,1," purple","congruent",1,1,1.9672,1.25,1,1,0.8,1,0.676611211919846,0.0407568390247364
16,1,7," S2-19.jpg",2,2," green","congruent",2,1,1.6996,1.25,1,1,0.8,1,0.530392929258519,-0.349429057579075
16,1,8," S1-15.jpg",1,2," green","incongruent",1,1,2.1161,1.5167,1,0,0.2,1,0.749574771858589,0.235461300983475
16,1,9," S2-19.jpg",2,2," green","congruent",2,1,1.9511,1.35,1,1,0.8,1,0.668393316093716,0.0188272486017513
16,1,10," S1-15.jpg",1,1," purple","congruent",1,1,3.0159,1.3167,1,1,0.8,1,1.10389829309735,1.1809794557999
16,1,11," S1-15.jpg",1,1," purple","congruent",1,1,1.834,1.2667,1,1,0.8,1,0.606499373834273,-0.14633775617937
16,1,12," S1-15.jpg",1,1," purple","congruent",1,1,1.9995,1.2833,1,1,0.8,1,0.692897149304736,0.0842161312889976
16,1,13," S2-19.jpg",2,2," green","congruent",2,1,2.2828,1.55,1,1,0.8,1,0.825402759680416,0.437809535947037
16,1,14," S2-19.jpg",2,3," orange","neutral",2,1,2.1995,1.7333,1,0.5,0.5,1,0.788230061806637,0.338613579155109
16,1,15," S2-19.jpg",2,2," green","congruent",2,1,2.2994,1.6,1,1,0.8,1,0.832648219337503,0.457144164429545
16,1,16," S2-19.jpg",2,1," purple","incongruent",2,1,3.9323,3.25,1,0,0.2,1,1.3692244964243,1.88900680130909
16,1,17," S1-15.jpg",1,1," purple","congruent",1,1,2.1495,1.3833,1,1,0.8,1,0.765235256954199,0.277251563507859
16,1,18," S1-15.jpg",1,3," orange","neutral",2,0,0.5048,1.8167,1,0.5,0.5,1,-0.683592967755134,-3.58897042729822
16,1,19," S2-19.jpg",2,2," green","congruent",2,1,1.7329,1.3,1,1,0.8,1,0.549796305664063,-0.29765082792038
16,1,20," S2-19.jpg",2,3," orange","neutral",2,1,2.051,1.4333,1,0.5,0.5,2,0.718327479090244,0.152077385351677
16,1,21," S1-15.jpg",1,3," orange","neutral",1,1,1.9495,1.35,1,0.5,0.5,2,0.667572929440515,0.0166380332997053
16,1,22," S1-15.jpg",1,1," purple","congruent",1,1,2.0009,1.3,1,1,0.8,2,0.69359707934031,0.0860839061220736
16,1,23," S1-15.jpg",1,3," orange","neutral",1,1,1.8677,1.25,1,0.5,0.5,2,0.624707727337424,-0.0977484648267823
16,1,24," S1-15.jpg",1,1," purple","congruent",1,1,2.1663,1.5833,1,1,0.8,2,0.773020643143109,0.298026994837214
16,1,25," S1-15.jpg",1,1," purple","congruent",1,1,2.1662,1.6167,1,1,0.8,2,0.7729744804195,0.297903808848614
16,1,26," S1-15.jpg",1,2," green","incongruent",2,0,0.8134,1.25,1,0,0.2,2,-0.206532285509013,-2.31592613592342
16,1,27," S1-15.jpg",1,3," orange","neutral",1,1,1.8995,1.3333,1,0.5,0.5,2,0.641590693645543,-0.0526959910432989
16,1,28," S1-15.jpg",1,1," purple","congruent",1,1,2.3013,1.6833,1,1,0.8,2,0.833474180651223,0.459348255805044
16,1,29," S2-19.jpg",2,3," orange","neutral",2,1,1.9162,1.3333,1,0.5,0.5,2,0.650344058234636,-0.0293374934031232
16,1,30," S1-15.jpg",1,1," purple","congruent",1,1,1.8662,1.4,1,1,0.8,2,0.623904277817785,-0.0998924831088367
16,1,31," S1-15.jpg",1,1," purple","congruent",1,1,2.0995,1.5333,1,1,0.8,2,0.741699221142111,0.214445264126612
16,1,32," S1-15.jpg",1,3," orange","neutral",1,1,2.1162,1.5167,1,0.5,0.5,2,0.749622027487924,0.235587403409015
16,1,33," S2-19.jpg",2,3," orange","neutral",2,1,2.3496,1.8833,1,0.5,0.5,2,0.854245100902273,0.514775798749274
16,1,34," S1-15.jpg",1,2," green","incongruent",1,1,2.5161,1.9167,1,0,0.2,2,0.922710083676338,0.697475733418448
16,1,35," S1-15.jpg",1,3," orange","neutral",1,1,1.7995,1.3167,1,0.5,0.5,2,0.587508848536948,-0.197014285853
16,1,36," S1-15.jpg",1,1," purple","congruent",1,1,0.5704,1.4,1,1,0.8,2,-0.561417409882051,-3.26294293795753
16,1,37," S2-19.jpg",2,3," orange","neutral",2,1,1.9496,1.4667,1,0.5,0.5,2,0.667624223328859,0.0167749118859512
16,1,38," S2-19.jpg",2,2," green","congruent",2,1,1.9996,1.4667,1,1,0.8,2,0.692947160557278,0.0843495871404704
16,1,39," S1-15.jpg",1,1," purple","congruent",1,1,2.3162,1.7833,1,1,0.8,3,0.83992791176814,0.476570143632347
16,1,40," S1-15.jpg",1,3," orange","neutral",1,1,2.2174,1.4167,1,0.5,0.5,3,0.796335338356114,0.360242643182654
16,1,41," S2-19.jpg",2,3," orange","neutral",2,1,0.9345,1.3667,1,0.5,0.5,3,-0.0677436520865195,-1.945566380736
16,1,42," S1-15.jpg",1,2," green","incongruent",2,0,0.4224,1.2667,1,0,0.2,3,-0.861802546590085,-4.06452562488019
16,1,43," S2-19.jpg",2,2," green","congruent",2,1,1.9664,1.5,1,1,0.8,3,0.676204459829633,0.0396714143697182
16,1,44," S2-19.jpg",2,3," orange","neutral",2,1,1.9829,1.4333,1,0.5,0.5,3,0.684560419622623,0.0619694307632271
16,1,45," S2-19.jpg",2,2," green","congruent",2,1,2.2496,1.6333,1,1,0.8,3,0.810752422634209,0.398714870137271
16,1,46," S2-19.jpg",2,3," orange","neutral",2,1,2.3995,1.8,1,0.5,0.5,3,0.875260382316163,0.570855423483021
16,1,47," S2-19.jpg",2,2," green","congruent",2,1,2.2504,1.7,1,1,0.8,3,0.81110797819351,0.399663676005959
16,1,48," S1-15.jpg",1,3," orange","neutral",1,1,2.4827,1.85,1,0.5,0.5,3,0.909346677639723,0.661815264213276
16,1,49," S1-15.jpg",1,3," orange","neutral",1,1,2.6327,1.45,1,0.5,0.5,3,0.968009935549467,0.818359134573394
16,1,50," S2-19.jpg",2,2," green","congruent",2,1,3.3663,1.9333,1,1,0.8,3,1.21381421835679,1.47429191350215
16,1,51," S2-19.jpg",2,2," green","congruent",2,1,2.167,1.4833,1,1,0.8,3,0.773343722554222,0.298889137569333
16,1,52," S2-19.jpg",2,2," green","congruent",2,1,1.6996,1.35,1,1,0.8,3,0.530392929258519,-0.349429057579075
16,1,53," S2-19.jpg",2,2," green","congruent",2,1,1.9829,1.55,1,1,0.8,3,0.684560419622623,0.0619694307632271
16,1,54," S1-15.jpg",1,1," purple","congruent",1,1,1.8663,1.3667,1,1,0.8,3,0.623957861206947,-0.0997494949519334
16,1,55," S1-15.jpg",1,1," purple","congruent",1,1,2.0162,1.5333,1,1,0.8,3,0.701214551637704,0.106411256465106
16,1,56," S2-19.jpg",2,1," purple","incongruent",1,0,1.1234,1.8333,1,0,0.2,3,0.116359801116195,-1.45428328228693
16,1,57," S1-15.jpg",1,3," orange","neutral",1,1,1.0083,1.3833,1,0.5,0.5,3,0.00826574441703259,-1.74273405371608
16,1,58," S1-15.jpg",1,1," purple","congruent",1,1,1.9663,1.45,1,1,0.8,4,0.676153604183374,0.0395357052396984
16,1,59," S1-15.jpg",1,2," green","incongruent",2,0,1.2999,1.2833,1,0,0.2,4,0.262287338431836,-1.06487324442885
16,1,60," S1-15.jpg",1,1," purple","congruent",1,1,1.6329,1.25,1,1,0.8,4,0.490357575126127,-0.456264059766734
16,1,61," S2-19.jpg",2,1," purple","incongruent",2,1,1.9662,1.3833,1,0,0.2,4,0.676102745950687,0.0393999892077521
16,1,62," S1-15.jpg",1,3," orange","neutral",1,1,2.3496,1.7167,1,0.5,0.5,4,0.854245100902273,0.514775798749274
16,1,63," S2-19.jpg",2,2," green","congruent",2,1,2.566,1.9,1,1,0.8,4,0.942348266193445,0.749880547054883
16,1,64," S1-15.jpg",1,1," purple","congruent",1,1,1.8997,1.25,1,1,0.8,4,0.641695978968866,-0.0524150354231646
16,1,65," S2-19.jpg",2,3," orange","neutral",2,1,2.1827,1.6667,1,0.5,0.5,4,0.780562642562895,0.318152944562741
16,1,66," S2-19.jpg",2,2," green","congruent",2,1,2.0163,1.4167,1,1,0.8,4,0.701264148661893,0.106543606941393
16,1,67," S2-19.jpg",2,2," green","congruent",2,1,1.9345,1.3667,1,1,0.8,4,0.659848895158431,-0.00397367945535593
16,1,68," S1-15.jpg",1,1," purple","congruent",1,1,2.0168,1.3333,1,1,0.8,4,0.701512096891573,0.107205260877878
16,1,69," S1-15.jpg",1,3," orange","neutral",1,1,2.8,1.7667,1,0.5,0.5,4,1.02961941718116,0.98276505148214
16,1,70," S2-19.jpg",2,3," orange","neutral",2,1,2.5828,1.75,1,0.5,0.5,4,0.948874081770175,0.767294793450974
16,1,71," S2-19.jpg",2,2," green","congruent",2,1,2.0162,1.4833,1,1,0.8,4,0.701214551637704,0.106411256465106
16,1,72," S2-19.jpg",2,2," green","congruent",2,1,2.2332,1.65,1,1,0.8,4,0.803435534454068,0.379189633464026
16,1,73," S1-15.jpg",1,1," purple","congruent",1,1,2.6827,1.3167,1,1,0.8,4,0.986823750059395,0.868564108599092
16,1,74," S1-15.jpg",1,3," orange","neutral",1,1,1.7341,1.2833,1,0.5,0.5,4,0.550488546822367,-0.295803570982993
16,1,75," S2-19.jpg",2,2," green","congruent",2,1,2.2995,1.5667,1,1,0.8,4,0.832691707997842,0.457260214636247
17,1,1," S2-19.jpg",2,2," green","congruent",2,1,1.8129,1.25,1,1,0.8,1,0.594927773053485,0.00675666124571643
17,1,2," S2-19.jpg",2,1," purple","incongruent",2,1,2.5859,1.8667,1,0,0.2,1,0.950073609841724,0.818500118870966
17,1,3," S2-19.jpg",2,3," orange","neutral",2,1,2.6127,1.2667,1,0.5,0.5,1,0.960384169384666,0.842066576327229
17,1,4," S2-19.jpg",2,1," purple","incongruent",2,1,1.8797,1.3,1,0,0.2,1,0.631112189640413,0.0894620188476936
17,1,5," S2-19.jpg",2,3," orange","neutral",2,1,0.443,1.5,1,0.5,0.5,1,-0.814185508937001,-3.21400047349342
17,1,6," S1-15.jpg",1,1," purple","congruent",2,0,1.034,1.25,1,1,0.8,1,0.0334347760862374,-1.27662672545671
17,1,7," S2-19.jpg",2,2," green","congruent",2,1,1.8663,1.25,1,1,0.8,1,0.623957861206947,0.0731096399148919
17,1,8," S1-15.jpg",1,2," green","incongruent",2,0,1.9197,1.5167,1,0,0.2,1,0.652168923831387,0.137590602792405
17,1,9," S2-19.jpg",2,2," green","congruent",2,1,1.9996,1.35,1,1,0.8,1,0.692947160557278,0.2307958819957
17,1,10," S1-15.jpg",1,1," purple","congruent",1,1,1.9995,1.3167,1,1,0.8,1,0.692897149304736,0.230681573160136
17,1,11," S1-15.jpg",1,1," purple","congruent",1,1,2.1063,1.2667,1,1,0.8,1,0.744932853709176,0.349617622066748
17,1,12," S1-15.jpg",1,1," purple","congruent",1,1,1.973,1.2833,1,1,0.8,1,0.679555227040478,0.200186444150322
17,1,13," S2-19.jpg",2,2," green","congruent",2,1,2.2794,1.55,1,1,0.8,1,0.823912250439498,0.530137853312637
17,1,14," S2-19.jpg",2,3," orange","neutral",2,1,2.3195,1.7333,1,0.5,0.5,1,0.841351645209661,0.569998420840746
17,1,15," S2-19.jpg",2,2," green","congruent",2,1,1.9595,1.6,1,1,0.8,1,0.672689338657549,0.184493341772914
17,1,16," S2-19.jpg",2,1," purple","incongruent",1,0,3.0828,3.25,1,0,0.2,1,1.1258382749217,1.22023879121654
17,1,17," S1-15.jpg",1,1," purple","congruent",2,0,0.8794,1.3833,1,1,0.8,1,-0.128515422235427,-1.64679019164739
17,1,18," S1-15.jpg",1,3," orange","neutral",1,1,2.4928,1.8167,1,0.5,0.5,1,0.913406576694292,0.734691662781127
17,1,19," S2-19.jpg",2,2," green","congruent",2,1,1.9063,1.3,1,1,0.8,1,0.645164190537794,0.121580147834223
17,1,20," S2-19.jpg",2,3," orange","neutral",2,1,1.9462,1.4333,1,0.5,0.5,2,0.665878753405752,0.16892664367857
17,1,21," S1-15.jpg",1,3," orange","neutral",1,1,1.8262,1.35,1,0.5,0.5,2,0.602237305200103,0.0234637834577555
17,1,22," S1-15.jpg",1,1," purple","congruent",1,1,2.0129,1.3,1,1,0.8,2,0.699576468324849,0.245948240974692
17,1,23," S1-15.jpg",1,3," orange","neutral",1,1,1.773,1.25,1,0.5,0.5,2,0.572673027092071,-0.0441101730628662
17,1,24," S1-15.jpg",1,1," purple","congruent",1,1,2.165,1.5833,1,1,0.8,2,0.772420361454453,0.412444782819744
17,1,25," S1-15.jpg",1,1," purple","congruent",1,1,2.0662,1.6167,1,1,0.8,2,0.725711171433208,0.30568334714134
17,1,26," S1-15.jpg",1,2," green","incongruent",1,1,1.7863,1.25,1,0,0.2,2,0.580146441472702,-0.0270284714034522
17,1,27," S1-15.jpg",1,3," orange","neutral",1,1,1.9329,1.3333,1,0.5,0.5,2,0.659021465830569,0.15325319984336
17,1,28," S1-15.jpg",1,1," purple","congruent",1,1,2.1597,1.6833,1,1,0.8,2,0.76996932316123,0.406842536945469
17,1,29," S2-19.jpg",2,3," orange","neutral",2,1,1.8396,1.3333,1,0.5,0.5,2,0.609548156683632,0.0401739212284624
17,1,30," S1-15.jpg",1,1," purple","congruent",1,1,2.2262,1.4,1,1,0.8,2,0.800296096076988,0.476159299118109
17,1,31," S1-15.jpg",1,1," purple","congruent",1,1,2.1862,1.5333,1,1,0.8,2,0.782164876877598,0.434717454559334
17,1,32," S1-15.jpg",1,3," orange","neutral",1,1,1.9462,1.5167,1,0.5,0.5,2,0.665878753405752,0.16892664367857
17,1,33," S2-19.jpg",2,3," orange","neutral",2,1,2.4304,1.8833,1,0.5,0.5,2,0.888055852859371,0.676748468500262
17,1,34," S1-15.jpg",1,2," green","incongruent",1,1,2.4927,1.9167,1,0,0.2,2,0.913366460356908,0.734599970380311
17,1,35," S1-15.jpg",1,3," orange","neutral",1,1,1.9463,1.3167,1,0.5,0.5,2,0.665930134266392,0.169044082975759
17,1,36," S1-15.jpg",1,1," purple","congruent",1,1,1.2773,1.4,1,1,0.8,2,0.244748475066594,-0.793634965775252
17,1,37," S2-19.jpg",2,3," orange","neutral",2,1,0.5052,1.4667,1,0.5,0.5,2,-0.682800888505801,-2.91369959700815
17,1,38," S2-19.jpg",2,2," green","congruent",2,1,2.1595,1.4667,1,1,0.8,2,0.769876713418619,0.40663086234622
17,1,39," S1-15.jpg",1,1," purple","congruent",1,1,0.6034,1.7833,1,1,0.8,3,-0.505174952257176,-2.50770668728314
17,1,40," S1-15.jpg",1,3," orange","neutral",1,1,0.4263,1.4167,1,0.5,0.5,3,-0.852611955210972,-3.30183035387376
17,1,41," S2-19.jpg",2,3," orange","neutral",2,1,0.8098,1.3667,1,0.5,0.5,3,-0.210967975384076,-1.83524888565377
17,1,42," S1-15.jpg",1,2," green","incongruent",1,1,1.9063,1.2667,1,0,0.2,3,0.645164190537794,0.121580147834223
17,1,43," S2-19.jpg",2,2," green","congruent",2,1,2.093,1.5,1,1,0.8,3,0.738598443463863,0.335139299242952
17,1,44," S2-19.jpg",2,3," orange","neutral",1,0,0.7976,1.4333,1,0.5,0.5,3,-0.226148060334509,-1.86994543385534
17,1,45," S2-19.jpg",2,2," green","congruent",2,1,0.495,1.6333,1,1,0.8,3,-0.703197516413447,-2.96031940089317
17,1,46," S2-19.jpg",2,3," orange","neutral",1,0,1.3203,1.8,1,0.5,0.5,3,0.277858983503018,-0.717955524211253
17,1,47," S2-19.jpg",2,2," green","congruent",2,1,2.4131,1.7,1,1,0.8,3,0.880912227972338,0.660420554260244
17,1,48," S1-15.jpg",1,3," orange","neutral",1,1,2.5998,1.85,1,0.5,0.5,3,0.955434518991782,0.830753346921834
17,1,49," S1-15.jpg",1,3," orange","neutral",1,1,2.0929,1.45,1,0.5,0.5,3,0.738550664013795,0.335030091554212
17,1,50," S2-19.jpg",2,2," green","congruent",2,1,2.5061,1.9333,1,1,0.8,3,0.918727759907572,0.746854090755135
17,1,51," S2-19.jpg",2,2," green","congruent",2,1,2.013,1.4833,1,1,0.8,3,0.699626146657654,0.246061788868158
17,1,52," S2-19.jpg",2,2," green","congruent",2,1,1.9599,1.35,1,1,0.8,3,0.672893451532677,0.184959874880836
17,1,53," S2-19.jpg",2,2," green","congruent",2,1,3.0579,1.55,1,1,0.8,3,1.11772840586034,1.20170236907432
17,1,54," S1-15.jpg",1,1," purple","congruent",1,1,1.933,1.3667,1,1,0.8,3,0.659073200226194,0.153371447202141
17,1,55," S1-15.jpg",1,1," purple","congruent",1,1,1.9895,1.5333,1,1,0.8,3,0.687883350884846,0.219221723026446
17,1,56," S2-19.jpg",2,1," purple","incongruent",1,0,0.9995,1.8333,1,0,0.2,3,-0.000500125041682243,-1.35419045033341
17,1,57," S1-15.jpg",1,3," orange","neutral",1,1,2.0163,1.3833,1,0.5,0.5,3,0.701264148661893,0.249805708331053
17,1,58," S1-15.jpg",1,1," purple","congruent",1,1,2.1062,1.45,1,1,0.8,4,0.74488537596436,0.349509103974333
17,1,59," S1-15.jpg",1,2," green","incongruent",1,1,1.9596,1.2833,1,0,0.2,4,0.672740370782283,0.18460998397758
17,1,60," S1-15.jpg",1,1," purple","congruent",1,1,1.8797,1.25,1,1,0.8,4,0.631112189640413,0.0894620188476936
17,1,61," S2-19.jpg",2,1," purple","incongruent",1,0,1.7197,1.3833,1,0,0.2,4,0.542149857008017,-0.113875832843041
17,1,62," S1-15.jpg",1,3," orange","neutral",1,1,2.3328,1.7167,1,0.5,0.5,4,0.847069262832202,0.583066964006768
17,1,63," S2-19.jpg",2,2," green","congruent",2,1,2.8262,1.9,1,1,0.8,4,1.03893305316651,1.02160280034805
17,1,64," S1-15.jpg",1,1," purple","congruent",1,1,1.9595,1.25,1,1,0.8,4,0.672689338657549,0.184493341772914
17,1,65," S2-19.jpg",2,3," orange","neutral",2,1,2.6528,1.6667,1,0.5,0.5,4,0.975615685958839,0.87688067985329
17,1,66," S2-19.jpg",2,2," green","congruent",2,1,2.1995,1.4167,1,1,0.8,4,0.788230061806637,0.448580419221849
17,1,67," S2-19.jpg",2,2," green","congruent",2,1,2.1862,1.3667,1,1,0.8,4,0.782164876877598,0.434717454559334
17,1,68," S1-15.jpg",1,1," purple","congruent",1,1,2.3196,1.3333,1,1,0.8,4,0.841394757020148,0.570096959881569
17,1,69," S2-19.jpg",2,3," orange","neutral",2,1,2.4793,1.7667,1,0.5,0.5,4,0.90797626227007,0.722279797710219
17,1,70," S2-19.jpg",2,3," orange","neutral",2,1,2.4128,1.75,1,0.5,0.5,4,0.8807878988315,0.66013637982762
17,1,71," S2-19.jpg",2,2," green","congruent",2,1,2.1729,1.4833,1,1,0.8,4,0.776062680887253,0.420769895108529
17,1,72," S2-19.jpg",2,2," green","congruent",2,1,2.257,1.65,1,1,0.8,4,0.814036497835399,0.50756521769342
17,1,73," S1-15.jpg",1,1," purple","congruent",1,1,2.0858,1.3167,1,1,0.8,4,0.735152474704975,0.327262978291241
17,1,74," S1-15.jpg",1,3," orange","neutral",1,1,1.9996,1.2833,1,0.5,0.5,4,0.692947160557278,0.2307958819957
17,1,75," S2-19.jpg",2,2," green","congruent",2,1,2.2661,1.5667,1,1,0.8,4,0.818060292258742,0.516762252994513
18,1,1," S4-20.jpg",2,2," green","congruent",2,1,2.1729,1.25,1,1,0.8,1,0.776062680887253,1.83871717438551
18,1,2," S4-20.jpg",2,1," purple","incongruent",2,1,2.3728,1.8667,1,0,0.2,1,0.86407069240153,1.99973831307303
18,1,3," S4-20.jpg",2,3," orange","neutral",1,0,1.7597,1.2667,1,0.5,0.5,1,0.565143339975579,1.45281512001049
18,1,4," S4-20.jpg",2,1," purple","incongruent",2,1,0.6529,1.3,1,0,0.2,1,-0.426331300789549,-0.361205818411763
18,1,5," S4-20.jpg",2,3," orange","neutral",2,1,0.4919,1.5,1,0.5,0.5,1,-0.709479835180843,-0.879259784646342
18,1,6," S3-12.jpg",1,1," purple","congruent",2,0,0.4242,1.25,1,1,0.8,1,-0.857550236851555,-1.15017221946564
18,1,7," S4-20.jpg",2,2," green","congruent",2,1,0.8441,1.25,1,1,0.8,1,-0.169484307992463,0.108726345002064
18,1,8," S3-12.jpg",1,2," green","incongruent",2,0,0.6082,1.5167,1,0,0.2,1,-0.497251503738873,-0.490962776197337
18,1,9," S4-20.jpg",2,2," green","congruent",2,1,0.6013,1.35,1,1,0.8,1,-0.508661300936614,-0.511838359060336
18,1,10," S3-12.jpg",1,1," purple","congruent",1,1,1.813,1.3167,1,1,0.8,1,0.594982931772714,1.50741020705397
18,1,11," S3-12.jpg",1,1," purple","congruent",1,1,0.5029,1.2667,1,1,0.8,1,-0.687363935804218,-0.838796112766366
18,1,12," S3-12.jpg",1,1," purple","congruent",1,1,0.4323,1.2833,1,1,0.8,1,-0.838635487308551,-1.11556543245841
18,1,13," S4-20.jpg",2,2," green","congruent",2,1,0.6118,1.55,1,1,0.8,1,-0.491349847265334,-0.480164992800565
18,1,14," S4-20.jpg",2,3," orange","neutral",2,1,0.4856,1.7333,1,0.5,0.5,1,-0.722370039236849,-0.902843948170772
18,1,15," S4-20.jpg",2,2," green","congruent",2,1,0.4204,1.6,1,1,0.8,1,-0.866548639979341,-1.16663586968423
18,1,16," S4-20.jpg",2,1," purple","incongruent",1,0,0.3686,3.25,1,0,0.2,1,-0.998043233746414,-1.40722088978996
18,1,17," S3-12.jpg",1,1," purple","congruent",1,1,0.5653,1.3833,1,1,0.8,1,-0.570398715300892,-0.624794311473224
18,1,18," S3-12.jpg",1,3," orange","neutral",2,0,0.6786,1.8167,1,0.5,0.5,1,-0.387723426632007,-0.290568114500642
18,1,19," S4-20.jpg",2,2," green","congruent",2,1,0.5012,1.3,1,1,0.8,1,-0.690750055960224,-0.84499142287361
18,1,20," S4-20.jpg",2,3," orange","neutral",2,1,2.1195,1.4333,1,0.5,0.5,2,0.751180211810555,1.79319173374495
18,1,21," S3-12.jpg",1,3," orange","neutral",1,1,1.853,1.35,1,0.5,0.5,2,0.616805947303223,1.54733801305545
18,1,22," S3-12.jpg",1,1," purple","congruent",1,1,0.7058,1.3,1,1,0.8,2,-0.348423367740967,-0.218663976181422
18,1,23," S3-12.jpg",1,3," orange","neutral",1,1,1.8176,1.25,1,0.5,0.5,2,0.597516949544695,1.51204649436552
18,1,24," S3-12.jpg",1,1," purple","congruent",1,1,1.1723,1.5833,1,1,0.8,2,0.158967631095645,0.709668285697008
18,1,25," S3-12.jpg",1,1," purple","congruent",1,1,0.5316,1.6167,1,1,0.8,2,-0.631863952143047,-0.737252282693453
18,1,26," S3-12.jpg",1,2," green","incongruent",2,0,0.5462,1.25,1,0,0.2,2,-0.604770069942532,-0.687680798366884
18,1,27," S3-12.jpg",1,3," orange","neutral",2,0,1.1184,1.3333,1,0.5,0.5,2,0.111899092497409,0.623550788539192
18,1,28," S3-12.jpg",1,1," purple","congruent",1,1,0.7171,1.6833,1,1,0.8,2,-0.332539978093608,-0.189603423133697
18,1,29," S4-20.jpg",2,3," orange","neutral",2,1,1.201,1.3333,1,0.5,0.5,2,0.183154543097847,0.753921121829973
18,1,30," S3-12.jpg",1,1," purple","congruent",1,1,0.6232,1.4,1,1,0.8,2,-0.472887784425599,-0.446386450031279
18,1,31," S3-12.jpg",1,1," purple","congruent",1,1,0.7241,1.5333,1,1,0.8,2,-0.322825774587362,-0.171830130871955
18,1,32," S3-12.jpg",1,3," orange","neutral",2,0,1.0101,1.5167,1,0.5,0.5,2,0.0100493358530014,0.437204528605013
18,1,33," S4-20.jpg",2,3," orange","neutral",1,0,0.9904,1.8833,1,0.5,0.5,2,-0.00964637705180545,0.401168876115806
18,1,34," S3-12.jpg",1,2," green","incongruent",2,0,0.5944,1.9167,1,0,0.2,2,-0.520202785578588,-0.532954879786334
18,1,35," S3-12.jpg",1,3," orange","neutral",1,1,1.2919,1.3167,1,0.5,0.5,2,0.256114002984119,0.887409143054137
18,1,36," S3-12.jpg",1,1," purple","congruent",1,1,0.7176,1.4,1,1,0.8,2,-0.331842968237551,-0.188328160589212
18,1,37," S4-20.jpg",2,3," orange","neutral",2,1,0.842,1.4667,1,0.5,0.5,2,-0.17197526473981,0.10416884296358
18,1,38," S4-20.jpg",2,2," green","congruent",2,1,0.5069,1.4667,1,1,0.8,2,-0.679441533503833,-0.824301134211583
18,1,39," S3-12.jpg",1,1," purple","congruent",1,1,0.7729,1.7833,1,1,0.8,3,-0.257605604869312,-0.052502062748402
18,1,40," S3-12.jpg",1,3," orange","neutral",2,0,0.622,1.4167,1,0.5,0.5,3,-0.474815186242958,-0.449912861206802
18,1,41," S4-20.jpg",2,3," orange","neutral",1,0,0.6159,1.3667,1,0.5,0.5,3,-0.484670666289139,-0.467944635724182
18,1,42," S3-12.jpg",1,2," green","incongruent",1,1,0.8438,1.2667,1,0,0.2,3,-0.169839779291899,0.108075967923648
18,1,43," S4-20.jpg",2,2," green","congruent",1,0,0.6583,1.5,1,1,0.8,3,-0.418094524508306,-0.346135655217529
18,1,44," S4-20.jpg",2,3," orange","neutral",2,1,1.9728,1.4333,1,0.5,0.5,3,0.679453853427943,1.66195981858227
18,1,45," S4-20.jpg",2,2," green","congruent",2,1,1.4989,1.6333,1,1,0.8,3,0.404731505754413,1.15932256449404
18,1,46," S4-20.jpg",2,3," orange","neutral",2,1,0.7878,1.8,1,0.5,0.5,3,-0.238511028445332,-0.0175662610453212
18,1,47," S4-20.jpg",2,2," green","congruent",2,1,0.5067,1.7,1,1,0.8,3,-0.679836166500273,-0.825023162278767
18,1,48," S3-12.jpg",1,3," orange","neutral",2,0,0.5216,1.85,1,0.5,0.5,3,-0.650854268369694,-0.77199732794828
18,1,49," S3-12.jpg",1,3," orange","neutral",1,1,0.5177,1.45,1,0.5,0.5,3,-0.658359355074281,-0.785728777918891
18,1,50," S4-20.jpg",2,2," green","congruent",2,1,0.4425,1.9333,1,1,0.8,3,-0.815314814534153,-1.07289748416051
18,1,51," S4-20.jpg",2,2," green","congruent",2,1,0.4168,1.4833,1,1,0.8,3,-0.87514878854298,-1.1823708657462
18,1,52," S4-20.jpg",2,2," green","congruent",1,0,0.5893,1.35,1,1,0.8,3,-0.528819887138269,-0.548720893373642
18,1,53," S4-20.jpg",2,2," green","congruent",2,1,0.5022,1.55,1,1,0.8,3,-0.688756832258652,-0.841344582721632
18,1,54," S3-12.jpg",1,1," purple","congruent",1,1,1.0799,1.3667,1,1,0.8,3,0.0768684442565771,0.559458045484933
18,1,55," S3-12.jpg",1,1," purple","congruent",1,1,0.34,1.5333,1,1,0.8,3,-1.07880966137193,-1.55499268829122
18,1,56," S4-20.jpg",2,1," purple","incongruent",1,0,0.4826,1.8333,1,0,0.2,3,-0.728567125791206,-0.914182256085681
18,1,57," S3-12.jpg",1,3," orange","neutral",1,1,1.9995,1.3833,1,0.5,0.5,3,0.692897149304736,1.68655592946523
18,1,58," S3-12.jpg",1,1," purple","congruent",1,1,0.5627,1.45,1,1,0.8,4,-0.575008652542904,-0.633228740694095
18,1,59," S3-12.jpg",1,2," green","incongruent",2,0,0.8314,1.2833,1,0,0.2,4,-0.1846442521636,0.0809894216143589
18,1,60," S3-12.jpg",1,1," purple","congruent",1,1,0.5394,1.25,1,1,0.8,4,-0.617297868276507,-0.71060189746088
18,1,61," S4-20.jpg",2,1," purple","incongruent",1,0,0.3992,1.3833,1,0,0.2,4,-0.918292734544828,-1.26130785333584
18,1,62," S3-12.jpg",1,3," orange","neutral",1,1,2.3329,1.7167,1,0.5,0.5,4,0.847112128854456,1.96871060132418
18,1,63," S4-20.jpg",2,2," green","congruent",2,1,0.3276,1.9,1,1,0.8,4,-1.11596192700322,-1.62296718304278
18,1,64," S3-12.jpg",1,1," purple","congruent",1,1,0.9821,1.25,1,1,0.8,4,-0.0180621428184085,0.385771230340727
18,1,65," S4-20.jpg",2,3," orange","neutral",2,1,0.8902,1.6667,1,0.5,0.5,4,-0.116309122400383,0.206016680127612
18,1,66," S4-20.jpg",2,2," green","congruent",2,1,0.564,1.4167,1,1,0.8,4,-0.572701027484078,-0.62900666581429
18,1,67," S4-20.jpg",2,2," green","congruent",1,0,0.8585,1.3667,1,1,0.8,4,-0.152568598644607,0.139675649889576
18,1,68," S3-12.jpg",1,1," purple","congruent",1,1,0.9852,1.3333,1,1,0.8,4,-0.0149106127357542,0.391537329969449
18,1,69," S3-12.jpg",1,3," orange","neutral",1,1,2.2794,1.7667,1,0.5,0.5,4,0.823912250439498,1.9262636606933
18,1,70," S4-20.jpg",2,3," orange","neutral",2,1,2.4262,1.75,1,0.5,0.5,4,0.886326247354682,2.04045750146303
18,1,71," S4-20.jpg",2,2," green","congruent",2,1,0.928,1.4833,1,1,0.8,4,-0.0747235461959364,0.282102444573393
18,1,72," S4-20.jpg",2,2," green","congruent",2,1,0.5319,1.65,1,1,0.8,4,-0.631299777233865,-0.736220057504719
18,1,73," S3-12.jpg",1,1," purple","congruent",1,1,1.1284,1.3167,1,1,0.8,4,0.120800700145704,0.639837339899867
18,1,74," S3-12.jpg",1,3," orange","neutral",1,1,2.3061,1.2833,1,0.5,0.5,4,0.835557786041059,1.94757055504217
18,1,75," S4-20.jpg",2,2," green","congruent",2,1,0.6481,1.5667,1,1,0.8,4,-0.433710273548467,-0.374706527898789
19,1,2," S2-19.jpg",2,1," purple","incongruent",2,1,2.7459,1.8667,1,0,0.2,1,1.01010889007671,0.971516840895543
19,1,3," S2-19.jpg",2,3," orange","neutral",2,1,1.9329,1.2667,1,0.5,0.5,1,0.659021465830569,-1.33997939617184
19,1,4," S2-19.jpg",2,1," purple","incongruent",2,1,2.0396,1.3,1,0,0.2,1,0.712753710198864,-0.986215996832812
19,1,5," S2-19.jpg",2,3," orange","neutral",2,1,2.4795,1.5,1,0.5,0.5,1,0.908056926947051,0.299625133962289
19,1,6," S1-15.jpg",1,1," purple","congruent",1,1,2.0129,1.25,1,1,0.8,1,0.699576468324849,-1.07297257910606
19,1,7," S2-19.jpg",2,2," green","congruent",2,1,2.186,1.25,1,1,0.8,1,0.782073389754347,-0.529827737437676
19,1,8," S1-15.jpg",1,2," green","incongruent",1,1,2.9593,1.5167,1,0,0.2,1,1.08495275388214,1.46427533238901
19,1,9," S2-19.jpg",2,2," green","congruent",2,1,2.3061,1.35,1,1,0.8,1,0.835557786041059,-0.177696125136224
19,1,10," S1-15.jpg",1,1," purple","congruent",1,1,2.586,1.3167,1,1,0.8,1,0.950112280349666,0.576509990625598
19,1,11," S1-15.jpg",1,1," purple","congruent",1,1,1.9863,1.2667,1,1,0.8,1,0.686273611616773,-1.16055618677583
19,1,12," S1-15.jpg",1,1," purple","congruent",1,1,2.1995,1.2833,1,1,0.8,1,0.788230061806637,-0.489293319800003
19,1,13," S2-19.jpg",2,2," green","congruent",2,1,2.7593,1.55,1,1,0.8,1,1.01497702437285,1.00356775850173
19,1,14," S2-19.jpg",2,3," orange","neutral",2,1,2.7337,1.7333,1,0.5,0.5,1,1.00565600294675,0.942199835687819
19,1,15," S2-19.jpg",2,2," green","congruent",2,1,3.4389,1.6,1,1,0.8,1,1.23515165280694,2.45315777505071
19,1,16," S2-19.jpg",2,1," purple","incongruent",2,1,3.8924,3.25,1,0,0.2,1,1.3590259339657,3.26872368540117
19,1,17," S1-15.jpg",1,1," purple","congruent",1,1,2.0795,1.3833,1,1,0.8,1,0.732127480200829,-0.858662591712961
19,1,18," S1-15.jpg",1,3," orange","neutral",1,1,2.7059,1.8167,1,0.5,0.5,1,0.995434574150743,0.874903793255814
19,1,19," S2-19.jpg",2,2," green","congruent",2,1,2.786,1.3,1,1,0.8,1,1.02460687535761,1.06696895939234
19,1,20," S2-19.jpg",2,3," orange","neutral",2,1,2.2929,1.4333,1,0.5,0.5,2,0.829817391934811,-0.21548984390689
19,1,21," S1-15.jpg",1,3," orange","neutral",1,1,2.1738,1.35,1,0.5,0.5,2,0.776476788146949,-0.566674752347543
19,1,22," S1-15.jpg",1,1," purple","congruent",1,1,2.0528,1.3,1,1,0.8,2,0.719204714879235,-0.943743746292935
19,1,23," S1-15.jpg",1,3," orange","neutral",2,0,2.6393,1.25,1,0.5,0.5,2,0.970513730484195,0.7108294562628
19,1,24," S1-15.jpg",1,1," purple","congruent",1,1,2.3061,1.5833,1,1,0.8,2,0.835557786041059,-0.177696125136224
19,1,25," S1-15.jpg",1,1," purple","congruent",1,1,2.2261,1.6167,1,1,0.8,2,0.800251175474146,-0.410148476980666
19,1,26," S1-15.jpg",1,2," green","incongruent",1,1,2.666,1.25,1,0,0.2,2,0.980579221756517,0.777098834182457
19,1,27," S1-15.jpg",1,3," orange","neutral",1,1,2.1197,1.3333,1,0.5,0.5,2,0.751274569236554,-0.732601613163516
19,1,28," S1-15.jpg",1,1," purple","congruent",1,1,3.0659,1.6833,1,1,0.8,2,1.12034116413168,1.69726623858063
19,1,29," S2-19.jpg",2,3," orange","neutral",2,1,2.2661,1.3333,1,0.5,0.5,2,0.818060292258742,-0.292896466255765
19,1,30," S1-15.jpg",1,1," purple","congruent",1,1,1.9863,1.4,1,1,0.8,2,0.686273611616773,-1.16055618677583
19,1,31," S1-15.jpg",1,1," purple","congruent",1,1,2.0263,1.5333,1,1,0.8,2,0.706211469889146,-1.02928892629012
19,1,32," S1-15.jpg",1,3," orange","neutral",1,1,2.2928,1.5167,1,0.5,0.5,2,0.82977377809177,-0.215776989578053
19,1,33," S2-19.jpg",2,3," orange","neutral",2,1,2.333,1.8833,1,0.5,0.5,2,0.847154993039293,-0.101342207320825
19,1,34," S1-15.jpg",1,2," green","incongruent",1,1,2.6128,1.9167,1,0,0.2,2,0.960422443234064,0.644390242280895
19,1,35," S1-15.jpg",1,3," orange","neutral",1,1,2.0661,1.3167,1,0.5,0.5,2,0.725662772236625,-0.901225062200429
19,1,36," S1-15.jpg",1,1," purple","congruent",1,1,2.0263,1.4,1,1,0.8,2,0.706211469889146,-1.02928892629012
19,1,37," S2-19.jpg",2,3," orange","neutral",2,1,2.8002,1.4667,1,0.5,0.5,2,1.02969084320169,1.10044088612449
19,1,38," S2-19.jpg",2,2," green","congruent",2,1,2.2532,1.4667,1,1,0.8,2,0.812351428038422,-0.330482597947987
19,1,39," S1-15.jpg",1,1," purple","congruent",2,0,3.0523,1.7833,1,1,0.8,3,1.11589540479067,1.66799616144896
19,1,40," S1-15.jpg",1,3," orange","neutral",1,1,2.3329,1.4167,1,0.5,0.5,3,0.847112128854456,-0.101624417377675
19,1,41," S2-19.jpg",2,3," orange","neutral",2,1,2.4129,1.3667,1,0.5,0.5,3,0.880829343595996,0.120363639206269
19,1,42," S1-15.jpg",1,2," green","incongruent",1,1,2.2662,1.2667,1,0,0.2,3,0.818104419964329,-0.292605937406335
19,1,43," S2-19.jpg",2,2," green","congruent",2,1,2.2265,1.5,1,1,0.8,3,0.80043084577962,-0.408965560116278
19,1,44," S2-19.jpg",2,3," orange","neutral",2,1,2.0928,1.4333,1,0.5,0.5,3,0.738502882280742,-0.816688095049761
19,1,45," S2-19.jpg",2,2," green","congruent",2,1,2.2929,1.6333,1,1,0.8,3,0.829817391934811,-0.21548984390689
19,1,46," S2-19.jpg",2,3," orange","neutral",2,1,3.0926,1.8,1,0.5,0.5,3,1.12901216105919,1.75435451741208
19,1,47," S2-19.jpg",2,2," green","congruent",2,1,2.4929,1.7,1,1,0.8,3,0.91344669142242,0.335110370524791
19,1,48," S1-15.jpg",1,3," orange","neutral",1,1,2.5993,1.85,1,0.5,0.5,3,0.955242178009096,0.610284310972657
19,1,49," S1-15.jpg",1,3," orange","neutral",1,1,2.36,1.45,1,0.5,0.5,3,0.858661619037519,-0.0255846584614455
19,1,50," S2-19.jpg",2,2," green","congruent",2,1,2.5728,1.9333,1,1,0.8,3,0.94499480000251,0.542817423621479
19,1,51," S2-19.jpg",2,2," green","congruent",2,1,2.4394,1.4833,1,1,0.8,3,0.891752107427001,0.192277144931963
19,1,52," S2-19.jpg",2,2," green","congruent",2,1,1.8929,1.35,1,1,0.8,3,0.638110044630037,-1.47765641926816
19,1,53," S2-19.jpg",2,2," green","congruent",2,1,2.9726,1.55,1,1,0.8,3,1.08943699073266,1.49379873849886
19,1,54," S1-15.jpg",1,1," purple","congruent",1,1,2.2528,1.3667,1,1,0.8,3,0.812173886981586,-0.331651496223627
19,1,55," S1-15.jpg",1,1," purple","congruent",1,1,2.3471,1.5333,1,1,0.8,3,0.853180523545359,-0.0616712019551008
19,1,56," S2-19.jpg",2,1," purple","incongruent",2,1,2.386,1.8333,1,0,0.2,3,0.869618323675724,0.0465523074132302
19,1,57," S1-15.jpg",1,3," orange","neutral",1,1,2.1461,1.3833,1,0.5,0.5,3,0.763652241445299,-0.651109253260276
19,1,58," S1-15.jpg",1,1," purple","congruent",1,1,2.6394,1.45,1,1,0.8,4,0.970551618600592,0.71107890478312
19,1,59," S1-15.jpg",1,2," green","incongruent",1,1,2.0796,1.2833,1,0,0.2,4,0.732175567527424,-0.858345993433452
19,1,60," S1-15.jpg",1,1," purple","congruent",1,1,1.8264,1.25,1,1,0.8,4,0.602346816233449,-1.71311506049292
19,1,61," S2-19.jpg",2,1," purple","incongruent",2,1,1.8397,1.3833,1,0,0.2,4,0.6096025148496,-1.66534485031082
19,1,62," S1-15.jpg",1,3," orange","neutral",1,1,2.813,1.7167,1,0.5,0.5,4,1.03425152950772,1.1304676216519
19,1,63," S2-19.jpg",2,2," green","congruent",2,1,2.5859,1.9,1,1,0.8,4,0.950073609841724,0.576255390980552
19,1,64," S1-15.jpg",1,1," purple","congruent",1,1,1.7863,1.25,1,1,0.8,4,0.580146441472702,-1.85927832119967
19,1,65," S2-19.jpg",2,3," orange","neutral",2,1,2.8129,1.6667,1,0.5,0.5,4,1.03421597964014,1.13023356773978
19,1,66," S2-19.jpg",2,2," green","congruent",2,1,2.3462,1.4167,1,1,0.8,4,0.852796998089483,-0.0641962643380133
19,1,67," S2-19.jpg",2,2," green","congruent",2,1,2.0529,1.3667,1,1,0.8,4,0.719253427644425,-0.943423030238592
19,1,68," S1-15.jpg",1,1," purple","congruent",1,1,2.2396,1.3333,1,1,0.8,4,0.806297278492601,-0.370342025906298
19,1,69," S2-19.jpg",2,3," orange","neutral",2,1,2.746,1.7667,1,0.5,0.5,4,1.01014530734578,0.971756605622542
19,1,70," S2-19.jpg",2,3," orange","neutral",2,1,2.2663,1.75,1,0.5,0.5,4,0.818148545722748,-0.292315421376712
19,1,71," S2-19.jpg",2,2," green","congruent",2,1,2.1195,1.4833,1,1,0.8,4,0.751180211810555,-0.733222845426692
19,1,72," S2-19.jpg",2,2," green","congruent",2,1,2.3061,1.65,1,1,0.8,4,0.835557786041059,-0.177696125136224
19,1,73," S1-15.jpg",1,1," purple","congruent",1,1,1.973,1.3167,1,1,0.8,4,0.679555227040478,-1.20478881829381
19,1,74," S1-15.jpg",1,3," orange","neutral",1,1,2.2129,1.2833,1,0.5,0.5,4,0.794303872519683,-0.449304446265124
19,1,75," S2-19.jpg",2,2," green","congruent",2,1,2.4804,1.5667,1,1,0.8,4,0.908419837493586,0.302014471502668
20,1,1," S4-20.jpg",2,2," green","congruent",2,1,2.1329,1.25,1,1,0.8,1,0.75748255606484,-0.00569825474784705
20,1,2," S4-20.jpg",2,1," purple","incongruent",2,1,2.6154,1.8667,1,0,0.2,1,0.961417049490265,0.709567952840911
20,1,3," S4-20.jpg",2,3," orange","neutral",2,1,1.8997,1.2667,1,0.5,0.5,1,0.641695978968866,-0.411800353995736
20,1,4," S4-20.jpg",2,1," purple","incongruent",2,1,1.3832,1.3,1,0,0.2,1,0.324399655386944,-1.52466426553059
20,1,5," S4-20.jpg",2,3," orange","neutral",2,1,0.4767,1.5,1,0.5,0.5,1,-0.740867916771357,-5.26091252646336
20,1,6," S3-12.jpg",1,1," purple","congruent",2,0,0.5833,1.25,1,1,0.8,1,-0.539053645222545,-4.55308264333085
20,1,7," S4-20.jpg",2,2," green","congruent",2,1,1.8329,1.25,1,1,0.8,1,0.605899411995665,-0.537350839710805
20,1,8," S3-12.jpg",1,2," green","incongruent",2,0,1.3203,1.5167,1,0,0.2,1,0.277858983503018,-1.6878979064802
20,1,9," S4-20.jpg",2,2," green","congruent",2,1,1.9497,1.35,1,1,0.8,1,0.667675514586276,-0.320681467710927
20,1,10," S3-12.jpg",1,1," purple","congruent",1,1,1.9995,1.3167,1,1,0.8,1,0.692897149304736,-0.232220792367357
20,1,11," S3-12.jpg",1,1," purple","congruent",1,1,1.9163,1.2667,1,1,0.8,1,0.650396243492312,-0.381285627888453
20,1,12," S3-12.jpg",1,1," purple","congruent",1,1,1.9497,1.2833,1,1,0.8,1,0.667675514586276,-0.320681467710927
20,1,13," S4-20.jpg",2,2," green","congruent",2,1,1.9661,1.55,1,1,0.8,1,0.676051885131308,-0.29130274568863
20,1,14," S4-20.jpg",2,3," orange","neutral",2,1,2.5662,1.7333,1,0.5,0.5,1,0.942426205478781,0.642960736244808
20,1,15," S4-20.jpg",2,2," green","congruent",2,1,1.7164,1.6,1,1,0.8,1,0.540229074135233,-0.767678592135289
20,1,16," S4-20.jpg",2,1," purple","incongruent",2,1,3.749,3.25,1,0,0.2,1,1.32148913775377,1.97246072151805
20,1,17," S3-12.jpg",1,1," purple","congruent",1,1,2.0996,1.3833,1,1,0.8,1,0.741746850396008,-0.0608886167529583
20,1,18," S3-12.jpg",1,3," orange","neutral",1,1,2.5494,1.8167,1,0.5,0.5,1,0.935858037366684,0.619923982542997
20,1,19," S4-20.jpg",2,2," green","congruent",2,1,2.0494,1.3,1,1,0.8,1,0.71754706738348,-0.145765317742097
20,1,20," S4-20.jpg",2,3," orange","neutral",2,1,2.05,1.4333,1,0.5,0.5,2,0.717839793150317,-0.144738630958553
20,1,21," S3-12.jpg",1,3," orange","neutral",1,1,2.1329,1.35,1,0.5,0.5,2,0.75748255606484,-0.00569825474784705
20,1,22," S3-12.jpg",1,1," purple","congruent",1,1,2.0663,1.3,1,1,0.8,2,0.725759568287422,-0.116961341142966
20,1,23," S3-12.jpg",1,3," orange","neutral",1,1,1.9829,1.25,1,0.5,0.5,2,0.684560419622623,-0.26146048067736
20,1,24," S3-12.jpg",1,1," purple","congruent",1,1,2.3162,1.5833,1,1,0.8,2,0.83992791176814,0.283465073714635
20,1,25," S3-12.jpg",1,1," purple","congruent",1,1,2.5661,1.6167,1,1,0.8,2,0.942387236595429,0.642824059388722
20,1,26," S3-12.jpg",1,2," green","incongruent",1,1,2.0829,1.25,1,0,0.2,2,0.7337611534452,-0.0888971163305242
20,1,27," S3-12.jpg",1,3," orange","neutral",1,1,2.0995,1.3333,1,0.5,0.5,2,0.741699221142111,-0.0610556684136798
20,1,28," S3-12.jpg",1,1," purple","congruent",1,1,2.6663,1.6833,1,1,0.8,2,0.980691743557735,0.777170726145733
20,1,29," S4-20.jpg",2,3," orange","neutral",2,1,1.8865,1.3333,1,0.5,0.5,2,0.634723260422228,-0.436256000844225
20,1,30," S3-12.jpg",1,1," purple","congruent",1,1,2.2162,1.4,1,1,0.8,2,0.795794017520088,0.128672803732749
20,1,31," S3-12.jpg",1,1," purple","congruent",1,1,2.3495,1.5333,1,1,0.8,2,0.854202539560733,0.333530948861366
20,1,32," S3-12.jpg",1,3," orange","neutral",2,0,2.0675,1.5167,1,0.5,0.5,2,0.726340147915709,-0.114925054971102
20,1,33," S4-20.jpg",2,3," orange","neutral",2,1,2.5494,1.8833,1,0.5,0.5,2,0.935858037366684,0.619923982542997
20,1,34," S3-12.jpg",1,2," green","incongruent",1,1,2.6354,1.9167,1,0,0.2,2,0.969034973129015,0.736286548892353
20,1,35," S3-12.jpg",1,3," orange","neutral",1,1,1.9995,1.3167,1,0.5,0.5,2,0.692897149304736,-0.232220792367357
20,1,36," S3-12.jpg",1,1," purple","congruent",1,1,2.0162,1.4,1,1,0.8,2,0.701214551637704,-0.203048891509558
20,1,37," S4-20.jpg",2,3," orange","neutral",2,1,2.0996,1.4667,1,0.5,0.5,2,0.741746850396008,-0.0608886167529583
20,1,38," S4-20.jpg",2,2," green","congruent",2,1,2.0828,1.4667,1,1,0.8,2,0.733713142306607,-0.0890655073880975
20,1,39," S3-12.jpg",1,1," purple","congruent",1,1,2.5162,1.7833,1,1,0.8,3,0.922749826934893,0.573949121663219
20,1,40," S3-12.jpg",1,3," orange","neutral",1,1,2.0996,1.4167,1,0.5,0.5,3,0.741746850396008,-0.0608886167529583
20,1,41," S4-20.jpg",2,3," orange","neutral",2,1,1.9663,1.3667,1,0.5,0.5,3,0.676153604183374,-0.290945983086145
20,1,42," S3-12.jpg",1,2," green","incongruent",1,1,2.018,1.2667,1,0,0.2,3,0.702106921931417,-0.199919051603478
20,1,43," S4-20.jpg",2,2," green","congruent",2,1,2.5856,1.5,1,1,0.8,3,0.949957589344639,0.669375808482686
20,1,44," S4-20.jpg",2,3," orange","neutral",2,1,2.6828,1.4333,1,0.5,0.5,3,0.986861025243445,0.798808452264382
20,1,45," S4-20.jpg",2,2," green","congruent",2,1,2.2662,1.6333,1,1,0.8,3,0.818104419964329,0.206922817636879
20,1,46," S4-20.jpg",2,3," orange","neutral",2,1,2.3162,1.8,1,0.5,0.5,3,0.83992791176814,0.283465073714635
20,1,47," S4-20.jpg",2,2," green","congruent",2,1,2.2827,1.7,1,1,0.8,3,0.82535895286845,0.232366881321258
20,1,48," S3-12.jpg",1,3," orange","neutral",1,1,2.4494,1.85,1,0.5,0.5,3,0.89584309660505,0.479578254634398
20,1,49," S3-12.jpg",1,3," orange","neutral",1,1,1.9996,1.45,1,0.5,0.5,3,0.692947160557278,-0.232045386243842
20,1,50," S4-20.jpg",2,2," green","congruent",2,1,2.5345,1.9333,1,1,0.8,3,0.929996378930267,0.599365193641846
20,1,51," S4-20.jpg",2,2," green","congruent",2,1,2.6172,1.4833,1,1,0.8,3,0.962105044013447,0.711980978833584
20,1,52," S4-20.jpg",2,2," green","congruent",2,1,1.833,1.35,1,1,0.8,3,0.605953968857568,-0.537159490620929
20,1,53," S4-20.jpg",2,2," green","congruent",2,1,2.1514,1.55,1,1,0.8,3,0.766118793015768,0.0245919053323431
20,1,54," S3-12.jpg",1,1," purple","congruent",1,1,2.5662,1.3667,1,1,0.8,3,0.942426205478781,0.642960736244808
20,1,55," S3-12.jpg",1,1," purple","congruent",1,1,2.1335,1.5333,1,1,0.8,3,0.757763823645918,-0.00471175563896037
20,1,56," S4-20.jpg",2,1," purple","incongruent",2,1,2.5201,1.8333,1,0,0.2,3,0.924298583275683,0.579381126106159
20,1,57," S3-12.jpg",1,3," orange","neutral",1,1,2.1495,1.3833,1,0.5,0.5,3,0.765235256954199,0.021493050021447
20,1,58," S3-12.jpg",1,1," purple","congruent",1,1,2.7172,1.45,1,1,0.8,4,0.99960193833501,0.843495079009818
20,1,59," S3-12.jpg",1,2," green","incongruent",1,1,2.0995,1.2833,1,0,0.2,4,0.741699221142111,-0.0610556684136798
20,1,60," S3-12.jpg",1,1," purple","congruent",1,1,2.1163,1.25,1,1,0.8,4,0.749669280884271,-0.0331020137362514
20,1,61," S4-20.jpg",2,1," purple","incongruent",2,1,2.3995,1.3833,1,0,0.2,4,0.875260382316163,0.40738781865659
20,1,62," S3-12.jpg",1,3," orange","neutral",1,1,2.5828,1.7167,1,0.5,0.5,4,0.948874081770175,0.665575586457155
20,1,63," S4-20.jpg",2,2," green","congruent",2,1,2.6494,1.9,1,1,0.8,4,0.974333199268024,0.754869193023531
20,1,64," S3-12.jpg",1,1," purple","congruent",1,1,1.8344,1.25,1,1,0.8,4,0.606717452561558,-0.534481698922546
20,1,65," S4-20.jpg",2,3," orange","neutral",2,1,2.4494,1.6667,1,0.5,0.5,4,0.89584309660505,0.479578254634398
20,1,66," S4-20.jpg",2,2," green","congruent",2,1,2.4994,1.4167,1,1,0.8,4,0.916050703069546,0.550453062507897
20,1,67," S4-20.jpg",2,2," green","congruent",2,1,2.4661,1.3667,1,1,0.8,4,0.902637955420368,0.503410088152601
20,1,68," S3-12.jpg",1,1," purple","congruent",1,1,2.0163,1.3333,1,1,0.8,4,0.701264148661893,-0.202874938222875
20,1,69," S3-12.jpg",1,3," orange","neutral",1,1,2.4344,1.7667,1,0.5,0.5,4,0.889700319600624,0.458033489262838
20,1,70," S4-20.jpg",2,3," orange","neutral",2,1,3.4825,1.75,1,0.5,0.5,4,1.24775042667182,1.71383449629168
20,1,71," S4-20.jpg",2,2," green","congruent",2,1,2.0019,1.4833,1,1,0.8,4,0.694096729595533,-0.228013464656948
20,1,72," S4-20.jpg",2,2," green","congruent",2,1,2.266,1.65,1,1,0.8,4,0.818016162605815,0.206613269678335
20,1,73," S3-12.jpg",1,1," purple","congruent",1,1,2.0021,1.3167,1,1,0.8,4,0.694196629695517,-0.227663081725388
20,1,74," S3-12.jpg",1,3," orange","neutral",1,1,2.7827,1.2833,1,0.5,0.5,4,1.0234216793922,0.927038846253664
20,1,75," S4-20.jpg",2,2," green","congruent",2,1,2.2162,1.5667,1,1,0.8,4,0.795794017520088,0.128672803732749
