,subID,block,trial,cueName,targetName,cueIdx,targetIdx,response,accuracy,RT,confidence,confRT,flickerDuration,coherence,catch_trial,trueCongruence,cueConfidence,imgIdx_subjective,subjectiveCue,subjectiveCongCue,trueCue,congCue,noise1_design,noise1_duration,signal1_onset,signal1_duration,noise2_onset,noise2_duration,signal2_onset,signal2_duration,zlogRT,condition
1,32,1,1,purple,S4-20.jpg,2,2,2,1,2.822014458,3,2.536747542,2.8266,0.663787019,0,congruent,3,2,0.85,0.85,0.8,0.8,0.630158568,0.630158568,0.643857668,0.520565774,1.178122541,0.712353164,1.904174804,0.931538753,1.611024564,condition_80cue
2,32,1,2,orange,S3-12.jpg,1,1,1,1,2.319369459,2,2.669003625,2.321504667,0.721212064,0,congruent,NA,1,0.75,0.75,0.8,0.8,0.66461464,0.66461464,0.678178204,0.556106128,1.247847896,1.071521563,NA,NA,0.9231787,condition_80cue
3,32,1,3,purple,S4-20.jpg,2,2,2,1,1.913761083,4,0.877242542,1.916964458,0.663787019,0,congruent,3,2,0.85,0.85,0.8,0.8,0.687757889,0.687757889,0.702709148,0.58309908,1.300759486,0.613001597,NA,NA,0.249116388,condition_80cue
4,32,1,4,green,S4-20.jpg,3,2,2,1,2.614402667,2,2.228679666,2.616499667,0.663787019,0,neutral,2,2,0.71,0.71,0.5,0.5,0.657172255,0.657172255,0.671458608,0.442876955,1.128621916,0.685744962,1.828653232,0.800035789,1.343063997,condition_80cue
5,32,1,5,purple,S4-20.jpg,2,2,2,1,1.634037875,3,1.038147916,1.63854925,0.663787019,0,congruent,3,2,0.85,0.85,0.8,0.8,0.673682282,0.673682282,0.688015947,0.473010964,1.175360577,0.458677298,NA,NA,-0.304988823,condition_80cue
6,32,1,6,purple,S4-20.jpg,2,2,2,1,1.585940584,4,0.922649625,1.588601917,0.663787019,0,congruent,3,2,0.85,0.85,0.8,0.8,0.728675403,0.728675403,0.742963156,0.528646861,1.285897771,0.300042813,NA,NA,-0.409754817,condition_80cue
7,32,1,7,orange,S3-12.jpg,1,1,1,1,1.6218185,2,1.163736125,1.624351209,0.721212064,0,congruent,NA,1,0.75,0.75,0.8,0.8,0.643134922,0.643134922,0.657116116,0.489341789,1.160439099,0.461379401,NA,NA,-0.331310053,condition_80cue
8,32,1,8,purple,S4-20.jpg,2,2,1,0,2.039355417,2,0.603591375,2.041511708,0.663787019,0,congruent,3,2,0.85,0.85,0.8,0.8,0.74915097,0.74915097,0.763024136,0.49943398,1.276331281,0.763024136,NA,NA,0.472009686,condition_80cue
9,32,1,10,orange,S3-12.jpg,1,1,1,1,2.314860083,2,1.215545875,2.31692175,0.721212064,0,congruent,NA,1,0.75,0.75,0.8,0.8,0.637626131,0.637626131,0.651487568,0.471288879,1.136637885,0.665349006,1.815848329,0.512873192,0.916354379,condition_80cue
10,32,1,11,orange,S3-12.jpg,1,1,1,1,2.358868917,3,0.535503166,2.361195542,0.721212064,0,congruent,NA,1,0.75,0.75,0.8,0.8,0.985174665,0.985174665,0.999050365,0.596655079,1.609581143,0.679909276,2.303366119,0.069378498,0.982394758,condition_80cue
11,32,1,12,green,S3-12.jpg,3,1,2,0,1.621473333,2,1.277447125,1.62329675,0.721212064,0,neutral,2,2,0.71,0.29,0.5,0.5,0.665219829,0.665219829,0.679078575,0.637502336,1.330439658,0.291033675,NA,NA,-0.332056439,condition_80cue
12,32,1,13,orange,S3-12.jpg,1,1,1,1,2.644243917,3,1.0261575,2.646628375,0.721212064,0,congruent,NA,1,0.75,0.75,0.8,0.8,0.664522031,0.664522031,0.67836624,0.429170479,1.121380928,0.650677823,1.78590296,0.872185166,1.382862622,condition_80cue
13,32,1,14,green,S3-12.jpg,3,1,2,0,1.468323291,4,1.234754167,1.470198833,0.721212064,0,neutral,2,2,0.71,0.29,0.5,0.5,0.91423903,0.91423903,0.928091137,0.554084261,NA,NA,NA,NA,-0.679963829,condition_80cue
14,32,1,15,orange,S3-12.jpg,1,1,1,1,1.612506375,3,0.572394708,1.614812875,0.721212064,0,congruent,NA,1,0.75,0.75,0.8,0.8,0.695045851,0.695045851,0.708946768,0.472631179,1.195478864,0.417027511,NA,NA,-0.351502397,condition_80cue
15,32,1,16,orange,S3-12.jpg,1,1,1,1,1.619157791,3,1.171450333,1.621220291,0.721212064,0,congruent,NA,1,0.75,0.75,0.8,0.8,0.740970515,0.740970515,0.754692191,0.452815314,1.221229181,0.39792861,NA,NA,-0.33706766,condition_80cue
16,32,1,17,purple,S3-12.jpg,2,1,2,0,1.423362709,2,0.585778667,1.425733334,0.721212064,0,incongruent,3,2,0.85,0.15,0.8,0.2,0.753544964,0.753544964,0.7674995,0.446545164,1.2279992,0.195363509,NA,NA,-0.789016468,condition_80cue
17,32,1,18,orange,S4-20.jpg,1,2,2,1,1.63320075,1,0.459909291,1.635512083,0.663787019,0,incongruent,NA,1,0.75,0.25,0.8,0.2,0.844281744,0.844281744,0.858122428,0.788919006,NA,NA,NA,NA,-0.306785748,condition_80cue
18,32,1,19,green,S4-20.jpg,3,2,2,1,1.398184042,4,0.449643791,1.400291125,0.663787019,0,neutral,2,2,0.71,0.71,0.5,0.5,0.678326911,0.678326911,0.692170318,0.45683241,1.162846134,0.235337908,NA,NA,-0.851602497,condition_80cue
19,32,1,21,purple,S4-20.jpg,2,2,2,1,2.668580375,3,0.321773375,2.670610417,0.663787019,0,congruent,3,2,0.85,0.85,0.8,0.8,0.875627936,0.875627936,0.889526792,0.889526792,1.792952439,0.68104395,2.487895245,0.194583986,1.414988525,condition_80cue
20,32,1,23,purple,S4-20.jpg,2,2,2,1,1.523599042,4,0.286159417,1.525679,0.663787019,0,congruent,3,2,0.85,0.85,0.8,0.8,0.803352222,0.803352222,0.817203123,0.498632414,1.329686437,0.193912605,NA,NA,-0.550379006,condition_80cue
21,32,1,24,green,S3-12.jpg,3,1,2,0,1.566406542,4,0.464154417,1.568759959,0.721212064,0,neutral,2,2,0.71,0.29,0.5,0.5,0.651514225,0.651514225,0.66537623,0.429722149,1.108960384,0.457446158,NA,NA,-0.453214248,condition_80cue
22,32,1,25,green,S3-12.jpg,3,1,1,1,2.537543667,2,0.552252084,2.53937375,0.721212064,0,neutral,2,2,0.71,0.29,0.5,0.5,0.693317942,0.693317942,0.707184301,0.623986148,1.345036807,0.637852506,1.996755672,0.554654353,1.238429231,condition_80cue
23,32,1,26,purple,S4-20.jpg,2,2,2,1,1.593083292,4,1.302622208,1.595413459,0.663787019,0,congruent,3,2,0.85,0.85,0.8,0.8,0.637233317,0.637233317,0.651086215,0.554115928,1.219055041,0.374028251,NA,NA,-0.393997212,condition_80cue
24,32,1,27,orange,S3-12.jpg,1,1,1,1,2.097793292,2,0.877946708,2.099627459,0.721212064,0,congruent,NA,1,0.75,0.75,0.8,0.8,0.722418882,0.722418882,0.736311553,0.611277516,1.361481739,0.666848199,2.042222609,0.069463354,0.571079776,condition_80cue
25,32,1,29,purple,S4-20.jpg,2,2,2,1,2.728869125,3,0.760344166,2.730931042,0.663787019,0,congruent,3,2,0.85,0.85,0.8,0.8,0.761867015,0.761867015,0.775719142,0.429415954,1.218987223,0.914240418,2.147079768,0.595641484,1.49332899,condition_80cue
26,32,1,31,orange,S4-20.jpg,1,2,1,0,1.859458333,2,0.625479375,1.86180775,0.663787019,0,incongruent,NA,1,0.75,0.25,0.8,0.2,0.749333955,0.749333955,0.76321051,0.430173196,1.207260261,0.652198072,NA,NA,0.148177124,condition_80cue
27,32,1,32,orange,S4-20.jpg,1,2,2,1,2.162096584,2,0.698962958,2.164299792,0.663787019,0,incongruent,NA,1,0.75,0.25,0.8,0.2,0.679120081,0.679120081,0.692979674,0.429647398,1.136486666,0.720698861,1.871045121,0.304911057,0.676953505,condition_80cue
28,32,1,33,orange,S3-12.jpg,1,1,1,1,2.414690292,2,0.846643958,2.416523417,0.721212064,0,congruent,NA,1,0.75,0.75,0.8,0.8,0.707754051,0.707754051,0.721631582,0.430203443,1.165712555,0.818774294,1.99836438,0.430203443,1.064410723,condition_80cue
29,32,1,35,green,S3-12.jpg,3,1,1,1,2.243947709,2,1.00895575,2.245949334,0.721212064,0,neutral,2,2,0.71,0.29,0.5,0.5,0.664873395,0.664873395,0.678724924,0.512506576,1.205083029,0.734131041,1.953065599,0.304733639,0.807254025,condition_80cue
30,32,1,36,orange,S4-20.jpg,1,2,1,0,2.434750709,4,0.546285916,2.437078417,0.663787019,0,incongruent,NA,1,0.75,0.25,0.8,0.2,0.677856731,0.677856731,0.691690542,0.539518623,1.245042976,0.691690542,1.950567329,0.49801719,1.093422287,condition_80cue
31,32,1,37,orange,S3-12.jpg,1,1,1,1,1.458031458,4,0.299680875,1.460409042,0.721212064,0,congruent,NA,1,0.75,0.75,0.8,0.8,1.124767125,1.124767125,1.138653139,0.333264333,NA,NA,NA,NA,-0.704629216,condition_80cue
32,32,1,38,orange,S3-12.jpg,1,1,2,0,2.141226917,1,0.509935584,2.143561792,0.721212064,0,congruent,NA,1,0.75,0.75,0.8,0.8,0.848148324,0.848148324,0.862052395,0.486642481,1.362598947,0.667395403,2.043898421,0.111232567,0.642941259,condition_80cue
33,32,1,41,purple,S4-20.jpg,2,2,2,1,2.092474625,4,1.350828208,2.094802583,0.663787019,0,congruent,3,2,0.85,0.85,0.8,0.8,1.011593693,1.011593693,1.025451141,0.637442601,1.67675119,0.415723435,NA,NA,0.562177898,condition_80cue
34,32,1,42,orange,S3-12.jpg,1,1,1,1,2.216337375,3,1.211817083,2.2182055,0.721212064,0,congruent,NA,1,0.75,0.75,0.8,0.8,0.734161755,0.734161755,0.748013864,0.498675909,1.260541882,0.664901213,1.939295203,0.29089428,0.763839507,condition_80cue
35,32,1,43,orange,S3-12.jpg,1,1,2,0,2.078967417,2,0.31772675,2.081418042,0.721212064,0,congruent,NA,1,0.75,0.75,0.8,0.8,0.706848922,0.706848922,0.720708705,0.720708705,1.455277192,0.623690225,NA,NA,0.539468727,condition_80cue
36,32,1,44,green,S4-20.jpg,3,2,2,1,2.204738458,4,0.403682917,2.206830583,0.663787019,0,neutral,2,2,0.71,0.71,0.5,0.5,0.776511658,0.776511658,0.790377938,0.651715142,1.455959359,0.734912819,2.204738458,0.01386628,0.745439802,condition_80cue
37,32,1,45,purple,S4-20.jpg,2,2,2,1,1.717433959,4,0.255353875,1.719821792,0.663787019,0,congruent,3,2,0.85,0.85,0.8,0.8,0.761765062,0.761765062,0.775615336,0.554010955,1.343476565,0.373957394,NA,NA,-0.130438711,condition_80cue
38,32,1,47,green,S4-20.jpg,3,2,2,1,1.21605325,4,0.074941666,1.218139834,0.663787019,0,neutral,2,2,0.71,0.71,0.5,0.5,0.936500779,0.936500779,0.950478402,0.279552471,NA,NA,NA,NA,-1.341001287,condition_80cue
39,32,1,48,green,S3-12.jpg,3,1,1,1,1.40286925,2,0.250515416,1.4052955,0.721212064,0,neutral,2,2,0.71,0.29,0.5,0.5,0.694489728,0.694489728,0.708379522,0.444473426,1.166742743,0.236126507,NA,NA,-0.839871679,condition_80cue
40,32,1,50,orange,S3-12.jpg,1,1,2,0,1.959449417,3,0.425493625,1.9617455,0.721212064,0,congruent,NA,1,0.75,0.75,0.8,0.8,0.680943414,0.680943414,0.694840219,0.528078566,1.236815589,0.66704661,1.917759004,0.055587218,0.331848623,condition_80cue
41,32,1,51,purple,S4-20.jpg,2,2,2,1,2.278714083,4,0.072457875,2.280792708,0.663787019,0,congruent,3,2,0.85,0.85,0.8,0.8,0.805886688,0.805886688,0.819781286,0.722519099,1.556194984,0.722519099,NA,NA,0.861167115,condition_80cue
42,32,1,52,orange,S3-12.jpg,1,1,1,1,1.331756083,2,0.294519875,1.334158042,0.721212064,0,congruent,NA,1,0.75,0.75,0.8,0.8,0.679750501,0.679750501,0.69362296,0.541025909,1.248521328,0.083234755,NA,NA,-1.022290859,condition_80cue
43,32,1,53,orange,S4-20.jpg,1,2,2,1,2.278460667,3,0.312698583,2.281146084,0.663787019,0,incongruent,NA,1,0.75,0.25,0.8,0.2,0.736331801,0.736331801,0.750224854,0.555722114,1.319840021,0.652973484,1.986706557,0.305647163,0.86077712,condition_80cue
44,32,1,54,purple,S3-12.jpg,2,1,2,0,1.247747292,4,0.287575833,1.249309375,0.721212064,0,incongruent,3,2,0.85,0.15,0.8,0.2,0.720920658,0.720920658,0.734784516,0.429779623,1.178427998,0.069319294,NA,NA,-1.250778461,condition_80cue
45,32,1,55,green,S4-20.jpg,3,2,1,0,1.994980666,2,0.356864208,1.99678975,0.663787019,0,neutral,2,2,0.71,0.71,0.5,0.5,0.720409685,0.720409685,0.734263717,0.595723393,1.343841143,0.651139523,NA,NA,0.394865757,condition_80cue
46,32,1,56,green,S4-20.jpg,3,2,1,0,1.232197917,3,0.963304292,1.234284292,0.663787019,0,neutral,2,2,0.71,0.71,0.5,0.5,0.733780782,0.733780782,0.747625702,0.456882374,1.218352997,0.01384492,NA,NA,-1.294752558,condition_80cue
47,32,1,57,green,S3-12.jpg,3,1,2,0,1.620348042,4,0.681310041,1.622636833,0.721212064,0,neutral,2,2,0.71,0.29,0.5,0.5,1.246421571,1.246421571,1.260270699,0.373926471,NA,NA,NA,NA,-0.334490863,condition_80cue
48,32,1,58,green,S3-12.jpg,3,1,1,1,1.772826167,2,0.350986458,1.775131542,0.721212064,0,neutral,2,2,0.71,0.29,0.5,0.5,0.664809813,0.664809813,0.678660017,0.429356337,1.121866559,0.650959608,NA,NA,-0.019125238,condition_80cue
49,32,1,60,purple,S3-12.jpg,2,1,2,0,2.162878541,4,1.579125583,2.164929291,0.721212064,0,incongruent,3,2,0.85,0.15,0.8,0.2,0.707094908,0.707094908,0.720959514,0.485261211,1.220085331,0.693230302,1.927180238,0.249562909,0.678221506,condition_80cue
50,32,1,62,purple,S4-20.jpg,2,2,2,1,3.492859167,4,0.992928417,3.334408333,0.663787019,0,congruent,3,2,0.85,0.85,0.8,0.8,0.785893313,0.785893313,0.800446892,0.480268135,1.295268608,0.727678993,2.037501181,1.469911566,2.358883156,condition_80cue
51,32,1,63,green,S3-12.jpg,3,1,2,0,2.192005333,3,0.373484583,2.194106875,0.721212064,0,neutral,2,2,0.71,0.29,0.5,0.5,0.84628054,0.84628054,0.860153991,0.499444253,1.373471696,0.818533637,NA,NA,0.725129077,condition_80cue
52,32,1,64,purple,S4-20.jpg,2,2,2,1,1.237255334,4,0.533754917,1.239316667,0.663787019,0,congruent,3,2,0.85,0.85,0.8,0.8,0.639480285,0.639480285,0.65338203,0.486561086,1.153844862,0.083410472,NA,NA,-1.280389432,condition_80cue
53,32,1,65,orange,S3-12.jpg,1,1,1,1,2.177486792,2,0.473179458,2.179682125,0.721212064,0,congruent,NA,1,0.75,0.75,0.8,0.8,0.642079439,0.642079439,0.656037687,0.460622206,1.130618142,0.711870682,1.856447073,0.334997968,0.70182596,condition_80cue
54,32,1,66,orange,S4-20.jpg,1,2,2,1,2.076591375,1,0.532152291,2.078717875,0.663787019,0,incongruent,NA,1,0.75,0.25,0.8,0.2,0.766527018,0.766527018,0.780463872,0.864085002,1.658485729,0.418105646,NA,NA,0.53545872,condition_80cue
55,32,1,67,orange,S3-12.jpg,1,1,2,0,3.683202833,1,0.948776458,3.328828875,0.721212064,0,congruent,NA,1,0.75,0.75,0.8,0.8,0.721293888,0.721293888,0.736640567,0.874760673,1.626747918,0.997534101,2.639628697,1.058920814,2.544952367,condition_80cue
56,32,1,68,orange,S3-12.jpg,1,1,1,1,3.076824792,2,1.024296625,3.07894525,0.721212064,0,congruent,NA,1,0.75,0.75,0.8,0.8,0.720697699,0.720697699,0.73455727,0.457365847,1.205782689,0.85929341,2.07893567,1.011748693,1.91416314,condition_80cue
57,32,1,69,green,S4-20.jpg,3,2,2,1,2.117696833,4,0.826329041,2.120163375,0.663787019,0,neutral,2,2,0.71,0.71,0.5,0.5,0.83593296,0.83593296,0.849865176,0.473695344,1.337492737,0.780204096,NA,NA,0.604193337,condition_80cue
58,32,1,70,orange,S3-12.jpg,1,1,2,0,1.97826,3,1.26782175,1.98035325,0.721212064,0,congruent,NA,1,0.75,0.75,0.8,0.8,0.747035245,0.747035245,0.760869231,0.525691469,1.300394685,0.677865315,NA,NA,0.365351513,condition_80cue
59,32,1,71,orange,S4-20.jpg,1,2,1,0,2.566253667,3,1.452284791,2.568687708,0.663787019,0,incongruent,NA,1,0.75,0.25,0.8,0.2,0.943271618,0.943271618,0.95714326,0.540994016,1.512008917,0.804555204,2.330435762,0.249689546,1.277880841,condition_80cue
60,32,1,72,orange,S4-20.jpg,1,2,2,1,1.861985417,4,0.827293959,1.864027958,0.663787019,0,incongruent,NA,1,0.75,0.25,0.8,0.2,0.666979851,0.666979851,0.680875264,0.444653234,1.139423912,0.653084437,1.806403763,0.069477068,0.152939555,condition_80cue
61,32,1,73,purple,S4-20.jpg,2,2,2,1,1.204755958,4,0.704541,1.207137125,0.663787019,0,congruent,3,2,0.85,0.85,0.8,0.8,1.093973801,1.093973801,1.107821571,0.110782157,NA,NA,NA,NA,-1.373730633,condition_80cue
62,32,1,74,orange,S3-12.jpg,1,1,1,1,2.901814125,2,0.429654875,2.904139625,0.721212064,0,congruent,NA,1,0.75,0.75,0.8,0.8,0.666445349,0.666445349,0.680329627,0.430412621,1.124626527,0.999668024,2.138178829,0.777519574,1.708807481,condition_80cue
63,32,1,75,purple,S4-20.jpg,2,2,2,1,2.066433292,3,2.62496825,2.068780209,0.663787019,0,congruent,3,2,0.85,0.85,0.8,0.8,0.693342749,0.693342749,0.706937705,0.448633544,1.169166205,0.747722573,1.930483733,0.149544515,0.518263193,condition_80cue
64,32,1,76,purple,S4-20.jpg,2,2,NA,0,NA,1,1.353392375,3.333150917,0.663787019,0,congruent,3,2,0.85,0.85,0.8,0.8,0.751200949,0.751200949,0.765112077,0.584267405,1.363290611,0.695556434,2.072758173,1.279823839,NA,condition_80cue
65,32,1,77,purple,S4-20.jpg,2,2,2,1,1.869176708,4,0.897348542,1.871566083,0.663787019,0,congruent,3,2,0.85,0.85,0.8,0.8,0.761516437,0.761516437,0.77536219,0.678441916,1.46764986,0.401526848,NA,NA,0.166456659,condition_80cue
66,32,1,78,purple,S4-20.jpg,2,2,2,1,2.260458667,4,0.533855459,2.262312167,0.663787019,0,congruent,3,2,0.85,0.85,0.8,0.8,0.637920851,0.637920851,0.651788695,0.471506716,1.137163256,0.693392229,1.84442333,0.429903182,0.832961359,condition_80cue
67,32,1,79,orange,S3-12.jpg,1,1,1,1,1.545040875,3,0.692318,1.547088666,0.721212064,0,congruent,NA,1,0.75,0.75,0.8,0.8,0.695964358,0.695964358,0.709883645,0.487175051,1.210977983,0.334062892,NA,NA,-0.501373663,condition_80cue
68,32,1,80,orange,S3-12.jpg,1,1,1,1,2.027468125,3,0.638591958,2.029889916,0.721212064,0,congruent,NA,1,0.75,0.75,0.8,0.8,0.937876412,0.937876412,0.951668712,0.468938206,1.434399218,0.593068907,NA,NA,0.451509905,condition_80cue
69,32,1,81,green,S3-12.jpg,3,1,1,1,2.90050925,3,0.389843667,2.902632334,0.721212064,0,neutral,2,2,0.71,0.29,0.5,0.5,0.655403532,0.655403532,0.669348288,0.515955972,1.199249017,0.683293044,1.896486817,1.017967189,1.707230279,condition_80cue
70,32,1,82,purple,S3-12.jpg,2,1,2,0,1.472446834,4,0.294350166,1.474833709,0.721212064,0,incongruent,3,2,0.85,0.15,0.8,0.2,0.638986362,0.638986362,0.65287737,0.611204346,1.277972724,0.19447411,NA,NA,-0.670129831,condition_80cue
71,32,1,83,green,S4-20.jpg,3,2,2,1,2.0053805,4,0.471393209,2.007464708,0.663787019,0,neutral,2,2,0.71,0.71,0.5,0.5,0.636189676,0.636189676,0.650019886,0.553208414,1.21705851,0.78832199,NA,NA,0.413098355,condition_80cue
72,32,1,84,orange,S3-12.jpg,1,1,1,1,1.6067075,3,0.244900167,1.608690959,0.721212064,0,congruent,NA,1,0.75,0.75,0.8,0.8,0.637142629,0.637142629,0.650993556,0.443229655,1.108074138,0.498633362,NA,NA,-0.364135638,condition_80cue
73,32,1,85,purple,S4-20.jpg,2,2,2,1,1.081204875,4,0.18339975,1.083632167,0.663787019,0,congruent,3,2,0.85,0.85,0.8,0.8,0.748526452,0.748526452,0.762388053,0.332678423,NA,NA,NA,NA,-1.753151818,condition_80cue
74,32,1,86,green,S3-12.jpg,3,1,1,1,1.549959167,3,0.381869542,1.552305125,0.721212064,0,neutral,2,2,0.71,0.29,0.5,0.5,0.636590372,0.636590372,0.650429293,0.60891253,1.273180744,0.276778423,NA,NA,-0.490228808,condition_80cue
75,32,1,87,green,S4-20.jpg,3,2,2,1,1.441623583,4,0.288029334,1.4436705,0.663787019,0,neutral,2,2,0.71,0.71,0.5,0.5,0.665364731,0.665364731,0.679226496,0.429714722,1.122802983,0.3188206,NA,NA,-0.74431464,condition_80cue
76,32,1,88,orange,S3-12.jpg,1,1,2,0,2.351194666,3,0.217458791,2.35323075,0.721212064,0,congruent,NA,1,0.75,0.75,0.8,0.8,0.691527843,0.691527843,0.7053584,0.442577819,1.161766776,0.636205616,1.811802949,0.553222274,0.970967817,condition_80cue
77,32,1,89,green,S4-20.jpg,3,2,2,1,1.835045041,4,0.254983292,1.836918583,0.663787019,0,neutral,2,2,0.71,0.71,0.5,0.5,0.695092819,0.695092819,0.708994675,0.7646021,1.487498632,0.347546409,NA,NA,0.101832754,condition_80cue
78,32,1,90,green,S3-12.jpg,3,1,1,1,3.127061,1,0.278638584,3.129440083,0.721212064,0,neutral,2,2,0.71,0.29,0.5,0.5,0.792188787,0.792188787,0.806086836,0.50032976,1.320314644,0.653208298,1.987420991,1.153538058,1.970954587,condition_80cue
79,32,1,91,orange,S3-12.jpg,1,1,1,1,1.947008791,1,0.386751375,1.949134625,0.721212064,0,congruent,NA,1,0.75,0.75,0.8,0.8,0.676620076,0.676620076,0.690428649,0.5109172,1.215154423,0.635194357,1.864157353,0.096660011,0.309513882,condition_80cue
80,32,1,92,orange,S3-12.jpg,1,1,1,1,2.527165416,3,1.026916833,2.529011083,0.721212064,0,congruent,NA,1,0.75,0.75,0.8,0.8,0.684149754,0.684149754,0.698111993,0.488678395,1.200752629,0.823772152,2.038487021,0.502640635,1.224058109,condition_80cue
81,32,1,93,purple,S4-20.jpg,2,2,2,1,1.658199083,4,0.243445708,1.66026325,0.663787019,0,congruent,3,2,0.85,0.85,0.8,0.8,0.663279633,0.663279633,0.677097959,0.677097959,1.368014243,0.29018484,NA,NA,-0.253518636,condition_80cue
82,32,1,94,purple,S4-20.jpg,2,2,2,1,2.028151167,4,0.345654875,2.030078,0.663787019,0,congruent,3,2,0.85,0.85,0.8,0.8,0.694572317,0.694572317,0.708463764,0.5695493,1.29190451,0.736246657,NA,NA,0.45269107,condition_80cue
83,32,1,95,orange,S3-12.jpg,1,1,1,1,1.70478725,3,0.410183334,1.707205583,0.721212064,0,congruent,NA,1,0.75,0.75,0.8,0.8,0.734583124,0.734583124,0.748443183,0.65142277,1.413726012,0.291061238,NA,NA,-0.156356134,condition_80cue
84,32,1,96,orange,S3-12.jpg,1,1,1,1,1.52194075,3,0.429877042,1.524547,0.721212064,0,congruent,NA,1,0.75,0.75,0.8,0.8,0.788642025,0.788642025,0.80247785,0.69179125,1.508104925,0.013835825,NA,NA,-0.55419772,condition_80cue
85,32,1,97,orange,S4-20.jpg,1,2,1,0,2.153877541,3,0.291649708,2.156155958,0.663787019,0,incongruent,NA,1,0.75,0.25,0.8,0.2,0.680903223,0.680903223,0.694799207,0.528047397,1.236742588,0.63921527,1.889853842,0.277919683,0.663597907,condition_80cue
86,32,1,98,orange,S3-12.jpg,1,1,1,1,2.402284959,4,0.583613833,2.404518042,0.721212064,0,congruent,NA,1,0.75,0.75,0.8,0.8,0.63875785,0.63875785,0.652643891,0.486011408,1.152541339,0.749846172,1.916273551,0.499897448,1.046349159,condition_80cue
87,32,1,99,green,S4-20.jpg,3,2,NA,0,NA,1,0.713858083,3.337010167,0.663787019,0,neutral,2,2,0.71,0.71,0.5,0.5,0.667734177,0.667734177,0.681645305,0.486889504,1.182445938,0.681645305,1.878002372,1.47457964,NA,condition_80cue
88,32,1,100,purple,S4-20.jpg,2,2,1,0,1.900669708,2,0.851085125,1.902989792,0.663787019,0,congruent,3,2,0.85,0.85,0.8,0.8,0.763042583,0.763042583,0.776916085,0.471699052,1.262488638,0.63818107,NA,NA,0.225046304,condition_80cue
89,32,1,101,orange,S4-20.jpg,1,2,1,0,1.458276375,3,0.248371958,1.460299125,0.663787019,0,incongruent,NA,1,0.75,0.25,0.8,0.2,0.749970707,0.749970707,0.763859054,0.638863936,1.416611336,0.041665039,NA,NA,-0.704040229,condition_80cue
90,32,1,102,orange,S3-12.jpg,1,1,1,1,1.419730875,3,0.270527292,1.421712167,0.721212064,0,congruent,NA,1,0.75,0.75,0.8,0.8,0.640270787,0.640270787,0.654189717,0.501081485,1.169190132,0.250540743,NA,NA,-0.797975384,condition_80cue
91,32,1,103,purple,S4-20.jpg,2,2,2,1,1.701737875,4,0.263075583,1.704175083,0.663787019,0,congruent,3,2,0.85,0.85,0.8,0.8,0.733269166,0.733269166,0.747104433,0.442728553,1.203668253,0.498069622,NA,NA,-0.162634111,condition_80cue
92,32,1,104,green,S3-12.jpg,3,1,1,1,2.162897458,2,0.618979709,2.164999292,0.721212064,0,neutral,2,2,0.71,0.29,0.5,0.5,1.247825457,1.247825457,1.261690184,0.693236365,1.968791276,0.194106182,NA,NA,0.678252176,condition_80cue
93,32,1,106,green,S3-12.jpg,3,1,2,0,2.743723917,4,0.296654791,2.745805333,0.721212064,0,neutral,2,2,0.71,0.29,0.5,0.5,0.654594031,0.654594031,0.668521564,0.515318705,1.197767801,0.877434552,2.089129886,0.668521564,1.51236583,condition_80cue
94,32,1,107,purple,S4-20.jpg,2,2,2,1,2.279911042,4,0.321518417,2.2818255,0.663787019,0,congruent,3,2,0.85,0.85,0.8,0.8,0.65338914,0.65338914,0.667291037,0.444860691,1.126053624,0.792408106,1.932363627,0.361449312,0.86300859,condition_80cue
95,32,1,108,orange,S3-12.jpg,1,1,2,0,2.516913666,1,0.412333084,2.51893025,0.721212064,0,congruent,NA,1,0.75,0.75,0.8,0.8,0.639657617,0.639657617,0.653563217,0.528412814,1.195881631,0.681374418,1.89116165,0.639657617,1.209804098,condition_80cue
96,32,1,109,orange,S3-12.jpg,1,1,2,0,1.638390916,3,0.288694583,1.640708208,0.721212064,0,congruent,NA,1,0.75,0.75,0.8,0.8,0.833080127,0.833080127,0.846964796,0.597040758,1.457890222,0.180500694,NA,NA,-0.295659649,condition_80cue
97,32,1,110,green,S4-20.jpg,3,2,2,1,2.195924333,4,0.376602917,2.197975542,0.663787019,0,neutral,2,2,0.71,0.71,0.5,0.5,0.681014508,0.681014508,0.694912764,0.50033719,1.209148209,0.861691827,2.084738291,0.125084297,0.731392851,condition_80cue
98,32,1,111,orange,S3-12.jpg,1,1,2,0,2.054281333,4,1.043048542,2.056548583,0.721212064,0,congruent,NA,1,0.75,0.75,0.8,0.8,1.054901225,1.054901225,1.068781504,0.929978712,2.012640495,0.041640838,NA,NA,0.497581056,condition_80cue
99,32,1,112,purple,S4-20.jpg,2,2,2,1,1.37150425,4,0.298485709,1.37362575,0.663787019,0,congruent,3,2,0.85,0.85,0.8,0.8,0.651118179,0.651118179,0.664971758,0.443314505,1.122139841,0.249364409,NA,NA,-0.919161832,condition_80cue
100,32,1,113,green,S3-12.jpg,3,1,2,0,1.137779958,4,0.860188083,1.140004708,0.721212064,0,neutral,2,2,0.71,0.29,0.5,0.5,1.068403131,1.068403131,1.082278497,0.069376827,NA,NA,NA,NA,-1.574303285,condition_80cue
101,32,1,114,purple,S3-12.jpg,2,1,2,0,1.368696792,3,0.261821292,1.3705385,0.721212064,0,incongruent,3,2,0.85,0.15,0.8,0.2,0.768146159,0.768146159,0.782112453,0.530719164,1.326797911,0.041898881,NA,NA,-0.926347239,condition_80cue
102,32,1,115,purple,S4-20.jpg,2,2,2,1,1.485517667,4,0.232401042,1.487838042,0.663787019,0,congruent,3,2,0.85,0.85,0.8,0.8,0.652517106,0.652517106,0.666400449,0.444266966,1.124550757,0.36096691,NA,NA,-0.639138979,condition_80cue
103,32,1,116,purple,S3-12.jpg,2,1,2,0,1.886713291,3,0.331287583,1.889160208,0.721212064,0,incongruent,3,2,0.85,0.15,0.8,0.2,0.707517484,0.707517484,0.721390376,0.582661458,1.317924725,0.568788566,NA,NA,0.199202463,condition_80cue
104,32,1,117,orange,S3-12.jpg,1,1,1,1,1.884642458,3,0.598429541,1.887034875,0.721212064,0,congruent,NA,1,0.75,0.75,0.8,0.8,1.08089788,1.08089788,1.094755545,0.637452596,1.746065807,0.138576651,NA,NA,0.195351512,condition_80cue
105,32,1,118,purple,S3-12.jpg,2,1,2,0,2.802744542,4,0.28241025,2.804582875,0.721212064,0,incongruent,3,2,0.85,0.15,0.8,0.2,0.763123514,0.763123514,0.776998487,0.430124162,1.220997622,0.749248541,1.984121136,0.832498379,1.586997651,condition_80cue
106,32,1,119,purple,S3-12.jpg,2,1,2,0,1.140368041,4,0.266875959,1.142454166,0.721212064,0,incongruent,3,2,0.85,0.15,0.8,0.2,0.647616418,0.647616418,0.661695036,0.436437151,1.112210805,0.028157236,NA,NA,-1.566335881,condition_80cue
107,32,1,120,purple,S4-20.jpg,2,2,2,1,1.198997875,3,0.328366875,1.201093042,0.663787019,0,congruent,3,2,0.85,0.85,0.8,0.8,0.771768747,0.771768747,0.785550332,0.427229128,NA,NA,NA,NA,-1.390530628,condition_80cue
108,32,1,121,orange,S3-12.jpg,1,1,1,1,1.683617834,3,0.584875458,1.686143959,0.721212064,0,congruent,NA,1,0.75,0.75,0.8,0.8,0.709624046,0.709624046,0.723538243,0.473082697,1.210535137,0.473082697,NA,NA,-0.200172826,condition_80cue
109,32,1,122,purple,S4-20.jpg,2,2,2,1,2.637753625,4,0.299197583,2.639831458,0.663787019,0,congruent,3,2,0.85,0.85,0.8,0.8,0.860740657,0.860740657,0.87462357,0.610848208,1.499354692,0.749677346,2.262914952,0.388721587,1.374245016,condition_80cue
110,32,1,123,orange,S3-12.jpg,1,1,1,1,1.791943667,1,0.750134958,1.794315042,0.721212064,0,congruent,NA,1,0.75,0.75,0.8,0.8,0.805680098,0.805680098,0.819571135,0.833462171,1.666924341,0.125019326,NA,NA,0.018486565,condition_80cue
111,32,1,124,purple,S4-20.jpg,2,2,2,1,2.581175917,4,0.452074708,2.583587125,0.663787019,0,congruent,3,2,0.85,0.85,0.8,0.8,0.707741784,0.707741784,0.721619074,0.444073276,1.179569639,0.763250943,1.956697873,0.638355334,1.298212158,condition_80cue
112,32,1,125,purple,S4-20.jpg,2,2,2,1,2.666671416,4,0.39085725,2.668870916,0.663787019,0,congruent,3,2,0.85,0.85,0.8,0.8,0.763890249,0.763890249,0.777779163,0.45833415,1.250002226,0.65277894,1.91667008,0.763890249,1.41247917,condition_80cue
113,32,1,127,orange,S3-12.jpg,1,1,1,1,2.483312375,2,0.513090709,2.485471542,0.721212064,0,congruent,NA,1,0.75,0.75,0.8,0.8,0.781266815,0.781266815,0.795218008,0.585950111,1.395119312,0.795218008,2.204288513,0.292975055,1.162674552,condition_80cue
114,32,1,128,green,S3-12.jpg,3,1,2,0,2.740060625,1,0.289534125,2.742386375,0.721212064,0,neutral,2,2,0.71,0.29,0.5,0.5,0.63981111,0.63981111,0.653720048,0.764991545,1.43262053,0.681537922,2.128067389,0.625902173,1.507680809,condition_80cue
115,32,1,129,purple,S4-20.jpg,2,2,2,1,1.062967042,4,0.240214292,1.065003917,0.663787019,0,congruent,3,2,0.85,0.85,0.8,0.8,0.85589554,0.85589554,0.869700307,0.207071502,NA,NA,NA,NA,-1.812806494,condition_80cue
116,32,1,130,purple,S3-12.jpg,2,1,2,0,1.396292125,4,0.239809083,1.398621625,0.721212064,0,incongruent,3,2,0.85,0.15,0.8,0.2,0.793970032,0.793970032,0.80765917,0.424363293,1.245711602,0.150580523,NA,NA,-0.856350622,condition_80cue
117,32,1,131,orange,S4-20.jpg,1,2,2,1,1.626878125,4,0.429446416,1.628795625,0.663787019,0,incongruent,NA,1,0.75,0.25,0.8,0.2,0.959440946,0.959440946,0.973345887,0.514482826,1.501733654,0.125144471,NA,NA,-0.320387355,condition_80cue
118,32,1,132,green,S4-20.jpg,3,2,2,1,2.512364166,3,0.310746625,2.514514166,0.663787019,0,neutral,2,2,0.71,0.71,0.5,0.5,0.88834976,0.88834976,0.902230225,0.47193581,1.388046501,0.763425575,2.165352541,0.36089209,1.203459873,condition_80cue
119,32,1,133,purple,S4-20.jpg,2,2,2,1,2.1473805,4,0.465455834,2.1497155,0.663787019,0,congruent,3,2,0.85,0.85,0.8,0.8,0.725089519,0.725089519,0.739033549,0.669313403,1.422290981,0.725089519,NA,NA,0.653004374,condition_80cue
120,32,1,134,green,S3-12.jpg,3,1,1,1,2.622997958,3,0.624368916,2.625465792,0.721212064,0,neutral,2,2,0.71,0.29,0.5,0.5,0.666158212,0.666158212,0.680036508,0.721671396,1.4155862,0.666158212,2.095622707,0.541253547,1.354573738,condition_80cue
121,32,1,135,orange,S3-12.jpg,1,1,2,0,2.34975925,1,0.690741958,2.351842417,0.721212064,0,congruent,NA,1,0.75,0.75,0.8,0.8,0.736906747,0.736906747,0.750810648,0.820330152,1.585044701,0.764714549,NA,NA,0.968826346,condition_80cue
122,32,1,136,green,S3-12.jpg,3,1,1,1,1.814497333,3,0.40481775,1.816598458,0.721212064,0,neutral,2,2,0.71,0.29,0.5,0.5,0.789514107,0.789514107,0.803365231,0.581747237,1.398963593,0.41553374,NA,NA,0.062346134,condition_80cue
123,32,1,137,purple,S4-20.jpg,2,2,2,1,2.358988959,4,0.29624,2.36130925,0.663787019,0,congruent,3,2,0.85,0.85,0.8,0.8,0.874213555,0.874213555,0.888089961,0.499550603,1.40151697,0.666067471,2.081460846,0.291404518,0.982573205,condition_80cue
124,32,1,138,orange,S3-12.jpg,1,1,2,0,3.182655375,1,0.502882375,3.185034291,0.721212064,0,congruent,NA,1,0.75,0.75,0.8,0.8,0.653208745,0.653208745,0.667106803,0.458635927,1.139640789,0.69490292,1.848441768,1.348111665,2.032749488,condition_80cue
125,32,1,139,orange,S3-12.jpg,1,1,2,0,2.43060325,3,0.373874958,2.433023125,0.721212064,0,congruent,NA,1,0.75,0.75,0.8,0.8,0.694458071,0.694458071,0.708347233,0.500009811,1.222246206,0.638901426,1.875036793,0.569455619,1.087443843,condition_80cue
126,32,1,140,orange,S3-12.jpg,1,1,2,0,2.84300225,3,0.504056667,2.845094667,0.721212064,0,congruent,NA,1,0.75,0.75,0.8,0.8,0.790493309,0.790493309,0.804361612,0.485390628,1.303620544,0.707283487,2.024772334,0.83209822,1.637007483,condition_80cue
127,32,1,141,orange,S4-20.jpg,1,2,2,1,1.97779825,3,0.276327708,1.980272541,0.663787019,0,incongruent,NA,1,0.75,0.25,0.8,0.2,0.640695208,0.640695208,0.654623364,0.529269954,1.197821475,0.779976775,NA,NA,0.364532927,condition_80cue
128,32,1,142,orange,S3-12.jpg,1,1,1,1,2.569287958,3,0.345084167,2.57161325,0.721212064,0,congruent,NA,1,0.75,0.75,0.8,0.8,0.666626065,0.666626065,0.680514108,0.444417377,1.138819527,0.666626065,1.819333635,0.763842366,1.282024571,condition_80cue
129,32,1,143,purple,S3-12.jpg,2,1,2,0,1.393479625,4,0.259916542,1.395816791,0.721212064,0,incongruent,3,2,0.85,0.15,0.8,0.2,0.696739812,0.696739812,0.710674609,0.627065831,1.351675236,0.041804389,NA,NA,-0.863421029,condition_80cue
130,32,1,144,orange,S3-12.jpg,1,1,NA,0,NA,1,0.546860375,3.342684,0.721212064,0,congruent,NA,1,0.75,0.75,0.8,0.8,0.73728982,0.73728982,0.751200949,0.653823048,1.418935125,0.681645305,2.11449156,1.238090453,NA,condition_80cue
131,32,1,145,purple,S4-20.jpg,2,2,2,1,1.179707,3,0.186592208,1.181767958,0.663787019,0,congruent,3,2,0.85,0.85,0.8,0.8,0.7078242,0.7078242,0.721703106,0.430246082,1.165828094,0.013878906,NA,NA,-1.447408229,condition_80cue
132,32,1,146,purple,S4-20.jpg,2,2,2,1,1.417135667,4,0.178224875,1.419527209,0.663787019,0,congruent,3,2,0.85,0.85,0.8,0.8,0.889183164,0.889183164,0.903076651,0.527952503,NA,NA,NA,NA,-0.804391228,condition_80cue
133,32,1,147,purple,S4-20.jpg,2,2,2,1,0.814888416,4,0.241771375,0.816582958,0.663787019,0,congruent,3,2,0.85,0.85,0.8,0.8,0.662960067,0.662960067,0.676771735,0.151928349,NA,NA,NA,NA,-2.744758134,condition_80cue
134,32,1,148,orange,S3-12.jpg,1,1,1,1,1.721773208,3,0.314389208,1.724091333,0.721212064,0,congruent,NA,1,0.75,0.75,0.8,0.8,0.874771872,0.874771872,0.88865714,0.499869641,1.402412048,0.31936116,NA,NA,-0.121590065,condition_80cue
135,32,1,149,green,S4-20.jpg,3,2,1,0,1.221409875,2,0.58251675,1.223511958,0.663787019,0,neutral,2,2,0.71,0.71,0.5,0.5,0.693982884,0.693982884,0.707862541,0.458028703,1.179770902,0.041638973,NA,NA,-1.325588745,condition_80cue
136,32,1,150,purple,S4-20.jpg,2,2,1,0,1.328813709,2,0.94596675,1.331048292,0.663787019,0,congruent,3,2,0.85,0.85,0.8,0.8,0.816666759,0.816666759,0.830508568,0.429096094,1.273446471,0.055367238,NA,NA,-1.030046966,condition_80cue
137,32,1,151,purple,S4-20.jpg,2,2,2,1,1.3970275,4,0.351522667,1.398978042,0.663787019,0,congruent,3,2,0.85,0.85,0.8,0.8,0.63626995,0.63626995,0.650101906,0.511782351,1.175716213,0.221311287,NA,NA,-0.854504295,condition_80cue
138,32,1,152,green,S4-20.jpg,3,2,1,0,1.940801708,1,0.761483083,1.943132291,0.663787019,0,neutral,2,2,0.71,0.71,0.5,0.5,0.63769199,0.63769199,0.651554859,0.568377643,1.233795372,0.707006336,NA,NA,0.298316843,condition_80cue
139,32,1,154,purple,S4-20.jpg,2,2,2,1,0.976654625,4,0.218229166,0.97870025,0.663787019,0,congruent,3,2,0.85,0.85,0.8,0.8,0.683658238,0.683658238,0.697610446,0.292996388,NA,NA,NA,NA,-2.109770282,condition_80cue
140,32,1,155,orange,S3-12.jpg,1,1,2,0,1.110102,2,0.553775667,1.112191792,0.721212064,0,congruent,NA,1,0.75,0.75,0.8,0.8,0.6660612,0.6660612,0.679937475,0.4440408,NA,NA,NA,NA,-1.660661345,condition_80cue
141,32,1,156,purple,S4-20.jpg,2,2,2,1,0.895633875,4,0.259046583,0.897913792,0.663787019,0,congruent,3,2,0.85,0.85,0.8,0.8,0.702728117,0.702728117,0.7165071,0.192905758,NA,NA,NA,NA,-2.413449578,condition_80cue
142,32,1,157,orange,S3-12.jpg,1,1,1,1,1.123002875,3,0.250160042,1.125115208,0.721212064,0,congruent,NA,1,0.75,0.75,0.8,0.8,0.998224778,0.998224778,1.012089011,0.124778097,NA,NA,NA,NA,-1.620144533,condition_80cue
143,32,1,158,purple,S4-20.jpg,2,2,2,1,1.297808625,4,0.34864025,1.299997541,0.663787019,0,congruent,3,2,0.85,0.85,0.8,0.8,0.662710787,0.662710787,0.676517262,0.635097838,NA,NA,NA,NA,-1.112836577,condition_80cue
144,32,1,159,purple,S4-20.jpg,2,2,2,1,1.464558708,3,0.421435125,1.466945291,0.663787019,0,congruent,3,2,0.85,0.85,0.8,0.8,0.884261861,0.884261861,0.898078453,0.428314339,1.340209384,0.124349324,NA,NA,-0.68896591,condition_80cue
145,32,1,160,purple,S4-20.jpg,2,2,2,1,1.201732833,3,0.419742375,1.203571958,0.663787019,0,congruent,3,2,0.85,0.85,0.8,0.8,0.966911475,0.966911475,0.980724496,0.234821358,NA,NA,NA,NA,-1.382540977,condition_80cue
146,32,1,162,orange,S4-20.jpg,1,2,2,1,1.454267625,3,0.363474542,1.456433875,0.663787019,0,incongruent,NA,1,0.75,0.25,0.8,0.2,0.7756094,0.7756094,0.789459568,0.595557218,1.398866954,0.055400671,NA,NA,-0.713693114,condition_80cue
147,32,1,163,purple,S4-20.jpg,2,2,1,0,1.920391,1,0.396257667,1.922791291,0.663787019,0,congruent,3,2,0.85,0.85,0.8,0.8,0.695793841,0.695793841,0.709709717,0.445308058,1.168933652,0.667962087,1.850811616,0.083495261,0.261243561,condition_80cue
148,32,1,164,purple,S3-12.jpg,2,1,2,0,1.292084666,4,0.2429765,1.294233291,0.721212064,0,incongruent,3,2,0.85,0.15,0.8,0.2,0.930856695,0.930856695,0.944750078,0.361227971,NA,NA,NA,NA,-1.128336721,condition_80cue
149,32,1,165,purple,S3-12.jpg,2,1,1,1,1.881749125,1,0.258265,1.883863584,0.721212064,0,incongruent,3,2,0.85,0.15,0.8,0.2,0.766638532,0.766638532,0.780577415,0.459983119,1.254499417,0.627249708,NA,NA,0.189963935,condition_80cue
150,32,1,166,green,S4-20.jpg,3,2,2,1,1.255094834,4,0.35558675,1.257203875,0.663787019,0,neutral,2,2,0.71,0.71,0.5,0.5,0.655438413,0.655438413,0.669383911,0.599656421,NA,NA,NA,NA,-1.230189698,condition_80cue
151,32,1,167,purple,S4-20.jpg,2,2,2,1,1.50618675,4,0.623785458,1.508517375,0.663787019,0,congruent,3,2,0.85,0.85,0.8,0.8,0.65547016,0.65547016,0.669416333,0.488116076,1.171478583,0.334708167,NA,NA,-0.590684958,condition_80cue
152,32,1,168,orange,S3-12.jpg,1,1,1,1,1.638488167,3,0.33236725,1.640575084,0.721212064,0,congruent,NA,1,0.75,0.75,0.8,0.8,0.916442534,0.916442534,0.930328027,0.722045633,NA,NA,NA,NA,-0.29545151,condition_80cue
153,32,1,169,orange,S3-12.jpg,1,1,2,0,1.362724208,4,0.38315225,1.364596667,0.721212064,0,congruent,NA,1,0.75,0.75,0.8,0.8,0.667456755,0.667456755,0.681362104,0.528403264,1.223670717,0.139053491,NA,NA,-0.941682625,condition_80cue
154,32,1,170,orange,S3-12.jpg,1,1,2,0,1.588331959,1,0.788638583,1.59064675,0.721212064,0,congruent,NA,1,0.75,0.75,0.8,0.8,0.635332784,0.635332784,0.649144366,0.593898037,1.256853985,0.331477974,NA,NA,-0.40447129,condition_80cue
155,32,1,171,green,S4-20.jpg,3,2,2,1,1.665634417,4,0.255187458,1.668022709,0.663787019,0,neutral,2,2,0.71,0.71,0.5,0.5,0.888338356,0.888338356,0.902218643,0.555211472,1.471310402,0.194324015,NA,NA,-0.237830104,condition_80cue
156,32,1,173,orange,S3-12.jpg,1,1,2,0,1.909897417,2,0.960023292,1.912137834,0.721212064,0,congruent,NA,1,0.75,0.75,0.8,0.8,1.134866581,1.134866581,1.148706417,0.512073945,1.674620199,0.235277218,NA,NA,0.242029738,condition_80cue
157,32,1,174,orange,S4-20.jpg,1,2,2,1,1.307763166,3,0.257293833,1.309836958,0.663787019,0,incongruent,NA,1,0.75,0.25,0.8,0.2,0.806917698,0.806917698,0.820830072,0.500845468,NA,NA,NA,NA,-1.086042383,condition_80cue
158,32,1,175,purple,S4-20.jpg,2,2,2,1,1.2999775,1,0.420281916,1.301867833,0.663787019,0,congruent,3,2,0.85,0.85,0.8,0.8,0.705306941,0.705306941,0.719136489,0.594670559,NA,NA,NA,NA,-1.106981243,condition_80cue
159,32,1,176,purple,S4-20.jpg,2,2,2,1,1.434653334,4,0.233381709,1.436973917,0.663787019,0,congruent,3,2,0.85,0.85,0.8,0.8,0.738219677,0.738219677,0.75214835,0.459646214,1.225723237,0.208930097,NA,NA,-0.761310332,condition_80cue
160,32,1,177,orange,S3-12.jpg,1,1,2,0,1.672051709,3,0.326052667,1.674200209,0.721212064,0,congruent,NA,1,0.75,0.75,0.8,0.8,0.732386286,0.732386286,0.746204895,0.566562976,1.32658648,0.345465229,NA,NA,-0.22434584,condition_80cue
161,32,1,178,orange,S3-12.jpg,1,1,2,0,2.66726475,3,0.30818,2.669356792,0.721212064,0,congruent,NA,1,0.75,0.75,0.8,0.8,0.680708191,0.680708191,0.694600195,0.597356168,1.305848367,1.000224281,2.319964652,0.361192102,1.413259309,condition_80cue
162,32,1,179,green,S4-20.jpg,3,2,2,1,1.372703583,4,0.273042667,1.375020833,0.663787019,0,neutral,2,2,0.71,0.71,0.5,0.5,0.665553252,0.665553252,0.679418945,0.707150331,NA,NA,NA,NA,-0.916096742,condition_80cue
163,32,1,180,purple,S4-20.jpg,2,2,2,1,1.652658416,4,0.329362292,1.654677416,0.663787019,0,congruent,3,2,0.85,0.85,0.8,0.8,0.652730635,0.652730635,0.666618521,0.444412347,1.124918754,0.527739662,NA,NA,-0.265255238,condition_80cue
164,32,1,181,green,S3-12.jpg,3,1,2,0,1.827401125,4,0.408554042,1.829511958,0.721212064,0,neutral,2,2,0.71,0.29,0.5,0.5,0.816792927,0.816792927,0.830636875,0.443006333,1.287487156,0.539913969,NA,NA,0.087195295,condition_80cue
165,32,1,182,orange,S4-20.jpg,1,2,1,0,1.817397833,3,0.609715958,1.819527333,0.663787019,0,incongruent,NA,1,0.75,0.25,0.8,0.2,0.638170231,0.638170231,0.652043497,0.471691041,1.137607804,0.679790029,NA,NA,0.067947063,condition_80cue
166,32,1,183,orange,S3-12.jpg,1,1,1,1,1.944348667,4,0.27714825,1.946468167,0.721212064,0,congruent,NA,1,0.75,0.75,0.8,0.8,0.694410238,0.694410238,0.708298443,0.430534348,1.152720995,0.722186648,1.888795848,0.069441024,0.304719626,condition_80cue
167,32,1,184,purple,S4-20.jpg,2,2,2,1,1.206449875,3,0.567121875,1.208828625,0.663787019,0,congruent,3,2,0.85,0.85,0.8,0.8,0.757538294,0.757538294,0.771566781,0.448911581,NA,NA,NA,NA,-1.368803681,condition_80cue
168,32,1,185,purple,S4-20.jpg,2,2,2,1,1.682662042,4,0.345659959,1.684736958,0.663787019,0,congruent,3,2,0.85,0.85,0.8,0.8,0.681408596,0.681408596,0.695314893,0.486720425,1.195941617,0.486720425,NA,NA,-0.202164112,condition_80cue
169,32,1,186,orange,S3-12.jpg,1,1,2,0,1.905378834,1,1.421288458,1.90766825,0.721212064,0,congruent,NA,1,0.75,0.75,0.8,0.8,0.834472482,0.834472482,0.848380357,0.570222863,1.432511094,0.47286774,NA,NA,0.233723644,condition_80cue
170,32,1,187,orange,S3-12.jpg,1,1,1,1,1.752910875,1,0.741618083,1.755313583,0.721212064,0,congruent,NA,1,0.75,0.75,0.8,0.8,0.862543446,0.862543446,0.876455438,0.584303625,1.474671054,0.278239821,NA,NA,-0.05874043,condition_80cue
171,32,1,188,purple,S4-20.jpg,2,2,1,0,1.6345925,3,0.737992625,1.63666175,0.663787019,0,congruent,3,2,0.85,0.85,0.8,0.8,0.997378475,0.997378475,1.011230953,0.540246674,1.565330106,0.069262394,NA,NA,-0.303798804,condition_80cue
172,32,1,189,purple,S4-20.jpg,2,2,2,1,1.02576825,4,0.238083583,1.027623875,0.663787019,0,congruent,3,2,0.85,0.85,0.8,0.8,0.831703986,0.831703986,0.84556572,0.194064264,NA,NA,NA,NA,-1.937720673,condition_80cue
173,32,1,190,purple,S3-12.jpg,2,1,2,0,1.179259167,4,0.201560209,1.181550917,0.721212064,0,incongruent,3,2,0.85,0.15,0.8,0.2,0.776923687,0.776923687,0.790797324,0.402335481,NA,NA,NA,NA,-1.448739648,condition_80cue
174,32,1,191,purple,S4-20.jpg,2,2,2,1,1.899616667,1,0.299151208,1.901891333,0.663787019,0,congruent,3,2,0.85,0.85,0.8,0.8,0.679424939,0.679424939,0.693290754,0.513035158,1.220191728,0.679424939,NA,NA,0.223102961,condition_80cue
175,32,1,192,orange,S3-12.jpg,1,1,2,0,1.453800833,1,1.046331291,1.456151792,0.721212064,0,congruent,NA,1,0.75,0.75,0.8,0.8,0.664594667,0.664594667,0.678440389,0.609211778,1.301497889,0.152302944,NA,NA,-0.714818857,condition_80cue
176,32,1,193,green,S4-20.jpg,3,2,2,1,1.499587,4,0.515885541,1.502028042,0.663787019,0,neutral,2,2,0.71,0.71,0.5,0.5,0.694253241,0.694253241,0.708138306,0.513747398,1.235770769,0.263816231,NA,NA,-0.606083949,condition_80cue
177,32,1,194,purple,S4-20.jpg,2,2,2,1,0.899305375,4,0.008002167,0.901639917,0.663787019,0,congruent,3,2,0.85,0.85,0.8,0.8,0.664102431,0.664102431,0.677937898,0.235202944,NA,NA,NA,NA,-2.399104109,condition_80cue
178,32,1,195,orange,S3-12.jpg,1,1,1,1,1.750663375,1,0.254086792,1.752809958,0.721212064,0,congruent,NA,1,0.75,0.75,0.8,0.8,0.903119995,0.903119995,0.917014149,0.444612921,1.375521223,0.375142152,NA,NA,-0.063239356,condition_80cue
179,32,1,196,orange,S3-12.jpg,1,1,1,1,1.659802208,4,0.214507,1.661855166,0.721212064,0,congruent,NA,1,0.75,0.75,0.8,0.8,0.719247623,0.719247623,0.733079309,0.484108977,1.231019971,0.428782237,NA,NA,-0.250130107,condition_80cue
180,32,1,197,purple,S3-12.jpg,2,1,2,0,2.226848959,3,0.280598833,2.229256667,0.721212064,0,incongruent,3,2,0.85,0.15,0.8,0.2,0.779397136,0.779397136,0.793314942,0.431451986,1.238684733,0.681972494,1.934575033,0.306191732,0.780431358,condition_80cue
181,32,1,198,orange,S3-12.jpg,1,1,2,0,1.889404041,1,0.290332584,1.891615666,0.721212064,0,congruent,NA,1,0.75,0.75,0.8,0.8,0.722419192,0.722419192,0.736311869,0.486243687,1.236448233,0.652955808,NA,NA,0.204199911,condition_80cue
182,32,1,199,green,S3-12.jpg,3,1,2,0,1.008633917,4,0.231828916,1.010721959,0.721212064,0,neutral,2,2,0.71,0.29,0.5,0.5,0.842831081,0.842831081,0.856647984,0.165802836,NA,NA,NA,NA,-1.996789868,condition_80cue
183,32,1,200,orange,S3-12.jpg,1,1,2,0,2.163162875,1,0.274622167,2.16525775,0.721212064,0,congruent,NA,1,0.75,0.75,0.8,0.8,0.901317865,0.901317865,0.915184293,0.707187863,1.636238585,0.52692429,NA,NA,0.678682461,condition_80cue
184,32,1,201,purple,S4-20.jpg,2,2,1,0,1.972816375,2,0.509122583,1.974892917,0.663787019,0,congruent,3,2,0.85,0.85,0.8,0.8,0.68076058,0.68076058,0.694653653,0.514043703,1.22259043,0.750225945,NA,NA,0.355688926,condition_80cue
185,32,1,202,purple,S4-20.jpg,2,2,2,1,1.593509625,3,0.957076417,1.595619042,0.663787019,0,congruent,3,2,0.85,0.85,0.8,0.8,0.720543483,0.720543483,0.734400088,0.692830272,1.441086965,0.15242266,NA,NA,-0.39305891,condition_80cue
186,32,1,203,purple,S4-20.jpg,2,2,2,1,1.53672075,4,0.642400334,1.539052,0.663787019,0,congruent,3,2,0.85,0.85,0.8,0.8,0.650683561,0.650683561,0.664527892,0.456862926,1.135235149,0.401485601,NA,NA,-0.520308093,condition_80cue
187,32,1,204,purple,S4-20.jpg,2,2,2,1,2.105566083,4,1.298928292,2.107966375,0.663787019,0,congruent,3,2,0.85,0.85,0.8,0.8,0.70647283,0.70647283,0.720325239,0.498686704,1.232864351,0.637210788,1.883927548,0.235490943,0.584048622,condition_80cue
188,32,1,205,orange,S3-12.jpg,1,1,2,0,2.839176667,1,0.505980833,2.841227667,0.721212064,0,congruent,NA,1,0.75,0.75,0.8,0.8,0.969474959,0.969474959,0.983324602,0.443188553,1.440362797,0.803279252,2.257491691,0.595534618,1.632285731,condition_80cue
189,32,1,206,orange,S4-20.jpg,1,2,2,1,1.153714792,1,0.577899833,1.156019917,0.663787019,0,incongruent,NA,1,0.75,0.25,0.8,0.2,0.653308376,0.653308376,0.667208554,0.500406416,NA,NA,NA,NA,-1.525532913,condition_80cue
190,32,1,207,purple,S4-20.jpg,2,2,2,1,1.205616083,4,0.256040458,1.207978958,0.663787019,0,congruent,3,2,0.85,0.85,0.8,0.8,0.67902515,0.67902515,0.692882806,0.526590933,NA,NA,NA,NA,-1.371227996,condition_80cue
191,32,1,208,purple,S3-12.jpg,2,1,1,1,1.719905458,2,0.422520625,1.722387833,0.721212064,0,incongruent,3,2,0.85,0.15,0.8,0.2,0.67964006,0.67964006,0.693510265,0.901563345,1.608943816,0.110961642,NA,NA,-0.125396065,condition_80cue
192,32,1,209,orange,S3-12.jpg,1,1,1,1,1.9790225,3,0.321122416,1.981113625,0.721212064,0,congruent,NA,1,0.75,0.75,0.8,0.8,0.933764137,0.933764137,0.947700915,0.52959757,1.491235264,0.487787236,NA,NA,0.366702849,condition_80cue
193,32,1,210,orange,S4-20.jpg,1,2,1,0,1.475382625,3,0.257834667,1.477394458,0.663787019,0,incongruent,NA,1,0.75,0.25,0.8,0.2,0.785951492,0.785951492,0.799740114,0.441235925,1.254764662,0.220617963,NA,NA,-0.663145203,condition_80cue
194,32,1,211,orange,S3-12.jpg,1,1,2,0,1.467760292,1,0.781489084,1.469176375,0.721212064,0,congruent,NA,1,0.75,0.75,0.8,0.8,1.038509641,1.038509641,1.052356436,0.429250651,NA,NA,NA,NA,-0.681308635,condition_80cue
195,32,1,212,purple,S4-20.jpg,2,2,2,1,2.234651417,4,0.646733834,2.236568667,0.663787019,0,congruent,3,2,0.85,0.85,0.8,0.8,0.634530649,0.634530649,0.648324794,0.441412626,1.103531564,0.75867795,1.876003659,0.372441903,0.792696465,condition_80cue
196,32,1,214,orange,S3-12.jpg,1,1,1,1,2.157617958,3,0.358116333,2.160053708,0.721212064,0,congruent,NA,1,0.75,0.75,0.8,0.8,0.774529523,0.774529523,0.788360408,0.470250068,1.27244136,0.705375102,1.991647346,0.179801497,0.669682235,condition_80cue
197,32,1,215,orange,S3-12.jpg,1,1,1,1,1.322993083,4,0.287605208,1.324965292,0.721212064,0,congruent,NA,1,0.75,0.75,0.8,0.8,0.710238392,0.710238392,0.724164635,0.501344747,1.239435625,0.083557458,NA,NA,-1.045440875,condition_80cue
198,32,1,216,orange,S3-12.jpg,1,1,1,1,1.354815125,3,0.430054125,1.356923083,0.721212064,0,congruent,NA,1,0.75,0.75,0.8,0.8,0.649758274,0.649758274,0.663582918,0.470037901,1.147445463,0.207369662,NA,NA,-0.962093983,condition_80cue
199,32,1,217,green,S4-20.jpg,3,2,2,1,2.181532417,1,0.3043865,2.184023375,0.663787019,0,neutral,2,2,0.71,0.71,0.5,0.5,0.699209108,0.699209108,0.71319329,0.657256562,1.384434034,0.657256562,2.055674778,0.139841822,0.708335007,condition_80cue
200,32,1,218,purple,S4-20.jpg,2,2,2,1,1.701003041,4,0.189246291,1.703041,0.663787019,0,congruent,3,2,0.85,0.85,0.8,0.8,0.815928288,0.815928288,0.829757581,0.442537377,1.286124251,0.41487879,NA,NA,-0.164148651,condition_80cue
201,32,1,219,orange,S3-12.jpg,1,1,2,0,1.554756792,3,0.265682125,1.557025625,0.721212064,0,congruent,NA,1,0.75,0.75,0.8,0.8,0.680206097,0.680206097,0.694087854,0.458097983,1.166067594,0.388689198,NA,NA,-0.479391407,condition_80cue
202,32,1,220,purple,S3-12.jpg,2,1,2,0,1.702165334,1,0.239904416,1.704167625,0.721212064,0,incongruent,3,2,0.85,0.15,0.8,0.2,0.802647068,0.802647068,0.816485811,0.581227187,1.41155174,0.290613594,NA,NA,-0.161753392,condition_80cue
203,32,1,221,orange,S3-12.jpg,1,1,2,0,1.75910525,3,0.951781542,1.761153667,0.721212064,0,congruent,NA,1,0.75,0.75,0.8,0.8,0.664858677,0.664858677,0.6787099,0.443239118,1.13580024,0.62330501,NA,NA,-0.046370654,condition_80cue
204,32,1,223,green,S3-12.jpg,3,1,2,0,1.68864175,4,0.597377667,1.691036125,0.721212064,0,neutral,2,2,0.71,0.29,0.5,0.5,0.655918696,0.655918696,0.669874413,0.432627225,1.116457355,0.572184395,NA,NA,-0.189724612,condition_80cue
205,32,1,224,orange,S3-12.jpg,1,1,1,1,1.364714875,3,0.504154625,1.366787084,0.721212064,0,congruent,NA,1,0.75,0.75,0.8,0.8,0.960870677,0.960870677,0.974796339,0.403844198,NA,NA,NA,NA,-0.936563874,condition_80cue
206,32,1,225,orange,S3-12.jpg,1,1,2,0,1.632522375,1,0.279636834,1.634909083,0.721212064,0,congruent,NA,1,0.75,0.75,0.8,0.8,0.920910058,0.920910058,0.93486324,0.711612317,NA,NA,NA,NA,-0.308242584,condition_80cue
207,32,1,226,purple,S4-20.jpg,2,2,2,1,1.188894459,4,0.27059425,1.190859167,0.663787019,0,congruent,3,2,0.85,0.85,0.8,0.8,0.635920292,0.635920292,0.649744646,0.456203688,1.119772688,0.069121771,NA,NA,-1.420204654,condition_80cue
208,32,1,227,orange,S4-20.jpg,1,2,1,0,1.511636166,3,0.264449042,1.514014458,0.663787019,0,incongruent,NA,1,0.75,0.25,0.8,0.2,0.721147529,0.721147529,0.73501575,0.526992425,1.275876397,0.235759769,NA,NA,-0.578020778,condition_80cue
209,32,1,228,orange,S3-12.jpg,1,1,1,1,1.718620375,3,0.735779959,1.720600875,0.721212064,0,congruent,NA,1,0.75,0.75,0.8,0.8,0.651412561,0.651412561,0.665272403,0.457374777,1.136507022,0.582113353,NA,NA,-0.128017139,condition_80cue
210,32,1,229,purple,S4-20.jpg,2,2,2,1,2.329754334,4,0.891042333,2.331881417,0.663787019,0,congruent,3,2,0.85,0.85,0.8,0.8,0.693379266,0.693379266,0.707246851,0.457630316,1.178744752,0.707246851,1.899859189,0.44376273,0.938844452,condition_80cue
211,32,1,230,green,S4-20.jpg,3,2,1,0,2.239198666,3,0.303895958,2.241578958,0.663787019,0,neutral,2,2,0.71,0.71,0.5,0.5,0.820575909,0.820575909,0.834483975,0.625862981,1.474255022,0.764943644,NA,NA,0.799824796,condition_80cue
212,32,1,231,orange,S3-12.jpg,1,1,2,0,2.157532875,4,0.3566,2.159620958,0.721212064,0,congruent,NA,1,0.75,0.75,0.8,0.8,0.737737048,0.737737048,0.751656615,0.50110441,1.266680591,0.709897914,1.990498072,0.18095437,0.669543952,condition_80cue
213,32,1,232,orange,S3-12.jpg,1,1,1,1,1.40255075,3,0.298145,1.40461475,0.721212064,0,congruent,NA,1,0.75,0.75,0.8,0.8,0.666558772,0.666558772,0.680445413,0.51380572,1.208137775,0.194412975,NA,NA,-0.840667897,condition_80cue
214,32,1,233,green,S3-12.jpg,3,1,2,0,2.263196792,1,0.536427125,2.265605083,0.721212064,0,neutral,2,2,0.71,0.29,0.5,0.5,1.110771432,1.110771432,1.124656075,0.472077858,1.610618576,0.652578216,NA,NA,0.837206422,condition_80cue
215,32,1,235,purple,S3-12.jpg,2,1,1,1,2.735133292,4,0.587273709,2.737695917,0.721212064,0,incongruent,3,2,0.85,0.15,0.8,0.2,0.652544491,0.652544491,0.666428416,0.680312342,1.360624683,0.680312342,2.05482095,0.694196267,1.501369304,condition_80cue
216,32,1,236,purple,S4-20.jpg,2,2,2,1,1.275889292,4,0.253985333,1.278240333,0.663787019,0,congruent,3,2,0.85,0.85,0.8,0.8,0.748891541,0.748891541,0.762759903,0.526997751,NA,NA,NA,NA,-1.172567696,condition_80cue
217,32,1,238,purple,S4-20.jpg,2,2,2,1,0.929432125,3,0.367728792,0.93174675,0.663787019,0,congruent,3,2,0.85,0.85,0.8,0.8,0.721350306,0.721350306,0.735222427,0.208081819,NA,NA,NA,NA,-2.283556598,condition_80cue
218,32,1,239,purple,S4-20.jpg,2,2,1,0,2.454664166,2,0.277371,2.456995041,0.663787019,0,congruent,3,2,0.85,0.85,0.8,0.8,0.721144275,0.721144275,0.735012434,0.554726365,1.303606958,0.748880593,2.06635571,0.402176615,1.121985862,condition_80cue
219,32,1,240,purple,S4-20.jpg,2,2,2,1,1.1803525,4,0.439358291,1.182597542,0.663787019,0,congruent,3,2,0.85,0.85,0.8,0.8,0.860963,0.860963,0.8748495,0.3193895,NA,NA,NA,NA,-1.44549003,condition_80cue
220,32,1,241,purple,S4-20.jpg,2,2,2,1,1.634668875,3,1.298392583,1.636992209,0.663787019,0,congruent,3,2,0.85,0.85,0.8,0.8,0.664950051,0.664950051,0.678803177,0.540271916,1.232928219,0.401740656,NA,NA,-0.303634963,condition_80cue
221,32,1,242,orange,S3-12.jpg,1,1,2,0,2.456226291,1,0.927664334,2.458606166,0.721212064,0,congruent,NA,1,0.75,0.75,0.8,0.8,0.693849235,0.693849235,0.707726219,0.430186526,1.15178973,0.818742097,1.984408811,0.485694464,1.12421674,condition_80cue
222,32,1,243,purple,S3-12.jpg,2,1,2,0,1.098129667,4,0.2246475,1.100421959,0.721212064,0,incongruent,3,2,0.85,0.15,0.8,0.2,0.875723658,0.875723658,0.889624034,0.222406009,NA,NA,NA,NA,-1.698685432,condition_80cue
223,32,1,244,orange,S3-12.jpg,1,1,2,0,1.083032041,3,0.247939292,1.08533675,0.721212064,0,congruent,NA,1,0.75,0.75,0.8,0.8,0.65259623,0.65259623,0.666481256,0.430435811,NA,NA,NA,NA,-1.747230837,condition_80cue
224,32,1,245,orange,S4-20.jpg,1,2,1,0,1.746739666,3,0.226849916,1.7488905,0.663787019,0,incongruent,NA,1,0.75,0.25,0.8,0.2,0.984273939,0.984273939,0.998136952,0.554520529,1.566520494,0.180219172,NA,NA,-0.071107488,condition_80cue
225,32,1,246,green,S3-12.jpg,3,1,2,0,1.30119025,4,0.323920792,1.30360175,0.721212064,0,neutral,2,2,0.71,0.29,0.5,0.5,0.727547237,0.727547237,0.74153853,0.545660427,1.30119025,0,NA,NA,-1.103711427,condition_80cue
226,32,1,247,purple,S4-20.jpg,2,2,2,1,1.244483333,4,0.206527542,1.246531458,0.663787019,0,congruent,3,2,0.85,0.85,0.8,0.8,0.788172778,0.788172778,0.80200037,0.456310555,NA,NA,NA,NA,-1.259963417,condition_80cue
227,32,1,248,purple,S4-20.jpg,2,2,2,1,2.184813791,4,0.278186584,2.186868958,0.663787019,0,congruent,3,2,0.85,0.85,0.8,0.8,0.667968548,0.667968548,0.681884559,0.612304502,1.308105072,0.640136525,1.962157608,0.236572194,0.713605582,condition_80cue
228,32,1,249,purple,S4-20.jpg,2,2,2,1,2.057875959,1,0.253635667,2.060257042,0.663787019,0,congruent,3,2,0.85,0.85,0.8,0.8,0.681323797,0.681323797,0.695228365,0.597896393,1.307029325,0.750846634,NA,NA,0.503711678,condition_80cue
229,32,1,250,green,S3-12.jpg,3,1,1,1,1.930698583,1,0.427735958,1.9330255,0.721212064,0,neutral,2,2,0.71,0.29,0.5,0.5,0.736165647,0.736165647,0.750055565,0.527816879,1.291762361,0.638936222,NA,NA,0.280014874,condition_80cue
230,32,1,251,purple,S4-20.jpg,2,2,NA,0,NA,1,0.972256334,3.339903333,0.663787019,0,congruent,3,2,0.85,0.85,0.8,0.8,0.779023206,0.779023206,0.792934335,0.472978375,1.279823839,0.695556434,1.989291401,1.363290611,NA,condition_80cue
231,32,1,252,purple,S4-20.jpg,2,2,2,1,0.954187666,3,0.290712583,0.956323666,0.663787019,0,congruent,3,2,0.85,0.85,0.8,0.8,0.636125111,0.636125111,0.649953917,0.318062555,NA,NA,NA,NA,-2.191379173,condition_80cue
232,32,1,253,orange,S3-12.jpg,1,1,1,1,2.152190041,3,0.551832,2.154091,0.721212064,0,congruent,NA,1,0.75,0.75,0.8,0.8,0.805335628,0.805335628,0.819220725,0.583174076,1.416279898,0.652599561,2.082764556,0.083310582,0.660849486,condition_80cue
233,32,1,254,purple,S4-20.jpg,2,2,2,1,1.758729333,3,0.224189209,1.760736125,0.663787019,0,congruent,3,2,0.85,0.85,0.8,0.8,0.637020073,0.637020073,0.650868336,0.553930499,1.218647097,0.540082236,NA,NA,-0.047120094,condition_80cue
234,32,1,255,green,S3-12.jpg,3,1,2,0,2.010157333,1,0.2592975,2.012396125,0.721212064,0,neutral,2,2,0.71,0.29,0.5,0.5,0.734747163,0.734747163,0.748610317,0.734747163,1.497220634,0.512936699,NA,NA,0.421441253,condition_80cue
235,32,1,258,purple,S4-20.jpg,2,2,2,1,1.354857375,4,0.291195167,1.357179459,0.663787019,0,congruent,3,2,0.85,0.85,0.8,0.8,0.705078838,0.705078838,0.718903913,0.483877634,1.216606622,0.138250753,NA,NA,-0.96198463,condition_80cue
236,32,1,260,orange,S3-12.jpg,1,1,2,0,2.54070925,1,0.343232292,2.54302225,0.721212064,0,congruent,NA,1,0.75,0.75,0.8,0.8,0.749717484,0.749717484,0.763601141,0.458160684,1.235645482,0.694182855,1.943711995,0.610880913,1.242801026,condition_80cue
237,32,1,261,green,S4-20.jpg,3,2,2,1,2.370336583,1,1.860569167,2.372384875,0.663787019,0,neutral,2,2,0.71,0.71,0.5,0.5,0.637634402,0.637634402,0.65149602,0.70694249,1.372300127,0.998036456,NA,NA,0.999400989,condition_80cue
238,32,1,262,orange,S3-12.jpg,1,1,1,1,1.770187084,3,0.362707959,1.772536417,0.721212064,0,congruent,NA,1,0.75,0.75,0.8,0.8,0.857434369,0.857434369,0.871263955,0.774456849,1.659550391,0.110636693,NA,NA,-0.024349209,condition_80cue
239,32,1,263,purple,S4-20.jpg,2,2,2,1,2.339268333,4,0.955226875,2.341295792,0.663787019,0,congruent,3,2,0.85,0.85,0.8,0.8,0.756822108,0.756822108,0.77058251,0.426572461,1.210915372,0.756822108,1.981497882,0.371530853,0.953135304,condition_80cue
240,32,1,264,orange,S4-20.jpg,1,2,1,0,2.207020083,3,0.64461325,2.209358625,0.663787019,0,incongruent,NA,1,0.75,0.25,0.8,0.2,0.652389584,0.652389584,0.666270214,0.555225178,1.235376021,0.735673361,1.984930012,0.235970701,0.749066847,condition_80cue
241,32,1,265,purple,S3-12.jpg,2,1,1,1,2.938563459,2,0.538214208,2.940606542,0.721212064,0,incongruent,3,2,0.85,0.15,0.8,0.2,0.762363162,0.762363162,0.77622431,0.499001342,1.2890868,0.679196271,1.98214422,0.970280387,1.752937556,condition_80cue
242,32,1,266,orange,S3-12.jpg,1,1,1,1,2.149504458,2,1.4699625,2.1518235,0.721212064,0,congruent,NA,1,0.75,0.75,0.8,0.8,0.697891058,0.697891058,0.711848879,0.474565919,1.200372619,0.949131839,NA,NA,0.656471045,condition_80cue
243,32,1,267,purple,S4-20.jpg,2,2,2,1,2.18500225,3,0.5234015,2.187405333,0.663787019,0,congruent,3,2,0.85,0.85,0.8,0.8,1.252549061,1.252549061,1.266466272,0.459267989,1.739651473,0.445350777,NA,NA,0.713908046,condition_80cue
244,32,1,268,purple,S4-20.jpg,2,2,2,1,1.731479042,4,2.9363305,1.733883625,0.663787019,0,congruent,3,2,0.85,0.85,0.8,0.8,0.664887952,0.664887952,0.678739784,0.554073293,1.24666491,0.484814132,NA,NA,-0.101878274,condition_80cue
245,32,1,269,purple,S4-20.jpg,2,2,2,1,2.355129041,1,0.422170125,2.3569605,0.663787019,0,congruent,3,2,0.85,0.85,0.8,0.8,0.900490516,0.900490516,0.914344216,0.623416511,1.551614427,0.720392413,2.28586054,0.083122201,0.976830743,condition_80cue
246,32,1,270,green,S4-20.jpg,3,2,2,1,1.509387291,3,0.386386083,1.511276333,0.663787019,0,neutral,2,2,0.71,0.71,0.5,0.5,0.670838796,0.670838796,0.684814604,0.461201672,1.159992085,0.349395206,NA,NA,-0.583241513,condition_80cue
247,32,1,271,purple,S3-12.jpg,2,1,1,1,2.574765375,3,0.585670167,2.576839542,0.721212064,0,incongruent,3,2,0.85,0.15,0.8,0.2,0.705984054,0.705984054,0.719826879,0.470656036,1.20432574,0.636769931,1.854938496,0.733669704,1.28949234,condition_80cue
248,32,1,272,orange,S3-12.jpg,1,1,NA,0,NA,1,0.589895042,3.337164083,0.721212064,0,congruent,NA,1,0.75,0.75,0.8,0.8,0.653823048,0.653823048,0.667734177,0.431244989,1.112890294,0.792934335,1.919735758,1.432846254,NA,condition_80cue
249,32,1,273,green,S4-20.jpg,3,2,2,1,2.293638042,3,1.270277709,2.29629375,0.663787019,0,neutral,2,2,0.71,0.71,0.5,0.5,0.653339321,0.653339321,0.667240158,0.472628445,1.153769439,0.847951034,2.01562131,0.291917569,0.884058196,condition_80cue
250,32,1,275,green,S4-20.jpg,3,2,2,1,2.447644,4,0.386244042,2.450023583,0.663787019,0,neutral,2,2,0.71,0.71,0.5,0.5,0.709260477,0.709260477,0.723167545,0.556282727,1.293357341,0.737074614,2.044339023,0.417212045,1.111942769,condition_80cue
501,35,1,1,yellow,S1-15.jpg,2,2,2,1,1.204389667,3,0.7767225,1.208663084,0.732151983,0,congruent,NA,2,0.75,0.75,0.8,0.8,0.67833441,0.67833441,0.69217797,0.429150341,1.13517187,0.069217797,NA,NA,0.141155322,condition_80cue
502,35,1,2,yellow,S2-19.jpg,2,1,2,0,1.109286375,2,0.46879275,1.111779916,0.633456344,0,incongruent,NA,2,0.75,0.25,0.8,0.2,0.637839666,0.637839666,0.651705745,0.471446709,NA,NA,NA,NA,-0.40266275,condition_80cue
503,35,1,3,yellow,S1-15.jpg,2,2,2,1,1.174822,3,0.515014042,1.177140291,0.732151983,0,congruent,NA,2,0.75,0.75,0.8,0.8,0.760178941,0.760178941,0.774000376,0.414643059,NA,NA,NA,NA,-0.023176699,condition_80cue
504,35,1,4,blue,S1-15.jpg,1,2,2,1,1.187296041,3,1.113219167,1.189296125,0.732151983,0,incongruent,4,1,0.85,0.15,0.8,0.2,0.684441247,0.684441247,0.698409436,0.460950228,1.173327852,0.013968189,NA,NA,0.046650636,condition_80cue
505,35,1,5,red,S2-19.jpg,3,1,1,1,1.331600583,4,1.347954625,1.333889208,0.633456344,0,neutral,3,2,0.6,0.4,0.5,0.5,0.70741281,0.70741281,0.721283649,0.540962737,1.276117225,0.055483358,NA,NA,0.804986005,condition_80cue
506,35,1,6,yellow,S2-19.jpg,2,1,1,1,1.358405417,4,1.080383875,1.360939417,0.633456344,0,incongruent,NA,2,0.75,0.25,0.8,0.2,0.706925268,0.706925268,0.720786548,0.651480149,NA,NA,NA,NA,0.936747983,condition_80cue
507,35,1,7,blue,S2-19.jpg,1,1,1,1,0.9933895,4,0.31070925,0.995659458,0.633456344,0,congruent,4,1,0.85,0.85,0.8,0.8,0.634665514,0.634665514,0.64846259,0.358723986,NA,NA,NA,NA,-1.132213722,condition_80cue
508,35,1,9,yellow,S1-15.jpg,2,2,2,1,1.263665208,2,0.272690958,1.266140417,0.732151983,0,congruent,NA,2,0.75,0.75,0.8,0.8,0.666548681,0.666548681,0.680435112,0.597116527,NA,NA,NA,NA,0.458784286,condition_80cue
509,35,1,10,yellow,S1-15.jpg,2,2,1,0,1.525389417,1,0.3645675,1.5277055,0.732151983,0,congruent,NA,2,0.75,0.75,0.8,0.8,0.790429062,0.790429062,0.804296238,0.59628859,1.414452005,0.110937412,NA,NA,1.703248496,condition_80cue
510,35,1,11,blue,S2-19.jpg,1,1,1,1,0.877555875,3,1.046589542,0.879947417,0.633456344,0,congruent,4,1,0.85,0.85,0.8,0.8,0.74043777,0.74043777,0.75414958,0.137118105,NA,NA,NA,NA,-1.951895381,condition_80cue
511,35,1,12,red,S1-15.jpg,3,2,2,1,1.058152375,3,0.342811708,1.06052025,0.732151983,0,neutral,3,2,0.6,0.6,0.5,0.5,0.632142977,0.632142977,0.645885216,0.426009398,NA,NA,NA,NA,-0.714666192,condition_80cue
512,35,1,13,red,S1-15.jpg,3,2,2,1,1.252841625,3,1.185965875,1.254973458,0.732151983,0,neutral,3,2,0.6,0.6,0.5,0.5,0.654261738,0.654261738,0.6681822,0.598579888,NA,NA,NA,NA,0.401913206,condition_80cue
513,35,1,14,yellow,S1-15.jpg,2,2,2,1,1.096127958,2,0.345463917,1.098258833,0.732151983,0,congruent,NA,2,0.75,0.75,0.8,0.8,0.666001797,0.666001797,0.679876835,0.430126161,NA,NA,NA,NA,-0.481555022,condition_80cue
514,35,1,15,yellow,S1-15.jpg,2,2,1,0,1.208558625,1,0.217796708,1.210792959,0.732151983,0,congruent,NA,2,0.75,0.75,0.8,0.8,0.861271664,0.861271664,0.875163142,0.347286961,NA,NA,NA,NA,0.164000566,condition_80cue
515,35,1,16,red,S2-19.jpg,3,1,1,1,1.382842625,3,1.234621333,1.384964167,0.633456344,0,neutral,3,2,0.6,0.4,0.5,0.5,0.691421313,0.691421313,0.705249739,0.511651771,1.230729936,0.152112689,NA,NA,1.054625402,condition_80cue
516,35,1,17,blue,S2-19.jpg,1,1,1,1,1.228930792,4,0.237986416,1.23102475,0.633456344,0,congruent,4,1,0.85,0.85,0.8,0.8,0.71802698,0.71802698,0.731835191,0.428054546,1.173697947,0.055232845,NA,NA,0.27451537,condition_80cue
517,35,1,18,blue,S1-15.jpg,1,2,1,0,1.273100334,2,0.327710792,1.275183125,0.732151983,0,incongruent,4,1,0.85,0.15,0.8,0.2,0.678064308,0.678064308,0.691902355,0.595036026,NA,NA,NA,NA,0.507963914,condition_80cue
518,35,1,19,blue,S2-19.jpg,1,1,1,1,0.930438208,4,1.079097958,0.932523875,0.633456344,0,congruent,4,1,0.85,0.85,0.8,0.8,0.805453971,0.805453971,0.819341109,0.124984237,NA,NA,NA,NA,-1.565035801,condition_80cue
519,35,1,20,blue,S1-15.jpg,1,2,1,0,1.224786583,1,0.761093583,1.226896208,0.732151983,0,incongruent,4,1,0.85,0.15,0.8,0.2,0.890753879,0.890753879,0.904671908,0.334032704,NA,NA,NA,NA,0.252183074,condition_80cue
520,35,1,21,yellow,S1-15.jpg,2,2,2,1,1.166677917,3,0.249672917,1.16918925,0.732151983,0,congruent,NA,2,0.75,0.75,0.8,0.8,0.708340164,0.708340164,0.722229187,0.458337753,NA,NA,NA,NA,-0.069166937,condition_80cue
521,35,1,22,red,S2-19.jpg,3,1,2,0,1.106780958,2,0.848629583,1.109135583,0.633456344,0,neutral,3,2,0.6,0.4,0.5,0.5,1.148285244,1.106780958,NA,NA,NA,NA,NA,NA,-0.417611783,condition_80cue
522,35,1,23,yellow,S1-15.jpg,2,2,2,1,1.580897083,2,0.32078175,1.583032166,0.732151983,0,congruent,NA,2,0.75,0.75,0.8,0.8,0.942991242,0.942991242,0.956858761,0.471495621,1.4422219,0.138675183,NA,NA,1.939553843,condition_80cue
523,35,1,24,red,S1-15.jpg,3,2,2,1,1.44244225,3,0.647802791,1.444254958,0.732151983,0,neutral,3,2,0.6,0.6,0.5,0.5,0.638003303,0.638003303,0.65187294,0.443828385,1.109570962,0.332871288,NA,NA,1.333598018,condition_80cue
524,35,1,25,blue,S2-19.jpg,1,1,1,1,0.9006075,3,0.638411625,0.902887334,0.633456344,0,congruent,4,1,0.85,0.85,0.8,0.8,1.0391625,0.9006075,NA,NA,NA,NA,NA,NA,-1.780471993,condition_80cue
525,35,1,26,blue,S1-15.jpg,1,2,1,0,1.4250885,3,0.367241958,1.427194542,0.732151983,0,incongruent,4,1,0.85,0.15,0.8,0.2,0.719462155,0.719462155,0.733297966,0.511924995,1.259058772,0.166029728,NA,NA,1.253576568,condition_80cue
526,35,1,27,blue,S2-19.jpg,1,1,1,1,1.148103584,4,0.301546667,1.150187709,0.633456344,0,congruent,4,1,0.85,0.85,0.8,0.8,0.705461238,0.705461238,0.719293812,0.442642346,NA,NA,NA,NA,-0.175270118,condition_80cue
527,35,1,29,yellow,S1-15.jpg,2,2,2,1,1.109791166,4,0.254544458,1.111866666,0.732151983,0,congruent,NA,2,0.75,0.75,0.8,0.8,0.679747089,0.679747089,0.693619479,0.430044077,NA,NA,NA,NA,-0.399654908,condition_80cue
528,35,1,30,red,S2-19.jpg,3,1,2,0,1.215364541,3,0.51484975,1.217520333,0.633456344,0,neutral,3,2,0.6,0.4,0.5,0.5,0.99438917,0.99438917,1.008200131,0.220975371,NA,NA,NA,NA,0.201127128,condition_80cue
529,35,1,31,yellow,S1-15.jpg,2,2,2,1,1.174832083,4,1.032307875,1.176925416,0.732151983,0,congruent,NA,2,0.75,0.75,0.8,0.8,0.621969926,0.621969926,0.63579148,0.469932833,1.119545867,0.055286216,NA,NA,-0.023119958,condition_80cue
530,35,1,32,red,S1-15.jpg,3,2,2,1,1.269337125,2,0.857906416,1.27141825,0.732151983,0,neutral,3,2,0.6,0.6,0.5,0.5,0.662262848,0.662262848,0.67605999,0.607074277,NA,NA,NA,NA,0.488392408,condition_80cue
531,35,1,33,red,S1-15.jpg,3,2,2,1,1.372832375,4,0.301639875,1.375120667,0.732151983,0,neutral,3,2,0.6,0.6,0.5,0.5,1.178694463,1.178694463,1.192561457,0.194137912,NA,NA,NA,NA,1.006592956,condition_80cue
532,35,1,34,blue,S1-15.jpg,1,2,1,0,1.083754584,2,0.556786833,1.085833709,0.732151983,0,incongruent,4,1,0.85,0.15,0.8,0.2,0.764185925,0.764185925,0.778080214,0.319568659,NA,NA,NA,NA,-0.556609321,condition_80cue
533,35,1,35,yellow,S1-15.jpg,2,2,2,1,1.315913125,4,0.701858166,1.3180115,0.732151983,0,congruent,NA,2,0.75,0.75,0.8,0.8,0.664882421,0.664882421,0.678734138,0.484810099,1.177395954,0.138517171,NA,NA,0.726636672,condition_80cue
534,35,1,36,yellow,S1-15.jpg,2,2,2,1,1.20686625,3,0.22840025,1.208951667,0.732151983,0,congruent,NA,2,0.75,0.75,0.8,0.8,0.665857241,0.665857241,0.679729267,0.541009009,NA,NA,NA,NA,0.154736129,condition_80cue
535,35,1,37,blue,S1-15.jpg,1,2,1,0,1.083020625,4,0.864100125,1.084820541,0.732151983,0,incongruent,4,1,0.85,0.15,0.8,0.2,0.70812887,0.70812887,0.72201375,0.374891755,NA,NA,NA,NA,-0.561088246,condition_80cue
536,35,1,38,yellow,S1-15.jpg,2,2,2,1,1.097514625,3,0.902738708,1.099619833,0.732151983,0,congruent,NA,2,0.75,0.75,0.8,0.8,0.639059149,0.639059149,0.652951739,0.458455476,NA,NA,NA,NA,-0.47319664,condition_80cue
537,35,1,39,blue,S2-19.jpg,1,1,1,1,1.236474042,4,0.229298625,1.238586292,0.633456344,0,congruent,4,1,0.85,0.85,0.8,0.8,0.652969438,0.652969438,0.666862405,0.486253837,1.167009208,0.069464834,NA,NA,0.314971793,condition_80cue
538,35,1,40,yellow,S1-15.jpg,2,2,2,1,1.218343084,4,0.431744959,1.220821709,0.732151983,0,congruent,NA,2,0.75,0.75,0.8,0.8,0.678395581,0.678395581,0.692240389,0.539947503,NA,NA,NA,NA,0.217309849,condition_80cue
539,35,1,41,yellow,S2-19.jpg,2,1,1,1,1.299399167,1,0.630796459,1.301510917,0.633456344,0,incongruent,NA,2,0.75,0.25,0.8,0.2,0.939990887,0.939990887,0.953814282,0.35940828,NA,NA,NA,NA,0.643143829,condition_80cue
540,35,1,43,yellow,S1-15.jpg,2,2,2,1,1.027860417,3,0.357529292,1.030164208,0.732151983,0,congruent,NA,2,0.75,0.75,0.8,0.8,0.652830265,0.652830265,0.66672027,0.375030152,NA,NA,NA,NA,-0.906690748,condition_80cue
541,35,1,44,blue,S2-19.jpg,1,1,1,1,1.120418583,4,0.2717285,1.122629916,0.633456344,0,congruent,4,1,0.85,0.85,0.8,0.8,0.636287097,0.636287097,0.650119425,0.45646683,1.120418583,0,NA,NA,-0.336646115,condition_80cue
542,35,1,45,red,S2-19.jpg,3,1,2,0,1.128820709,1,0.931857959,1.131115625,0.633456344,0,neutral,3,2,0.6,0.4,0.5,0.5,0.752547139,0.752547139,0.766483197,0.37627357,NA,NA,NA,NA,-0.287252433,condition_80cue
543,35,1,46,blue,S2-19.jpg,1,1,1,1,1.208620375,4,0.961958208,1.211076583,0.633456344,0,congruent,4,1,0.85,0.85,0.8,0.8,0.86131567,0.86131567,0.875207858,0.347304705,NA,NA,NA,NA,0.164338353,condition_80cue
544,35,1,47,yellow,S1-15.jpg,2,2,2,1,1.10857075,3,0.68885775,1.110698417,0.732151983,0,congruent,NA,2,0.75,0.75,0.8,0.8,0.692856719,0.692856719,0.706713853,0.415714031,NA,NA,NA,NA,-0.406929211,condition_80cue
545,35,1,48,red,S1-15.jpg,3,2,2,1,1.122662167,4,0.454142125,1.124894083,0.732151983,0,neutral,3,2,0.6,0.6,0.5,0.5,0.679141311,0.679141311,0.693001338,0.443520856,NA,NA,NA,NA,-0.323420575,condition_80cue
546,35,1,49,red,S2-19.jpg,3,1,1,1,1.305016417,3,0.697973375,1.307426958,0.633456344,0,neutral,3,2,0.6,0.4,0.5,0.5,0.652508208,0.652508208,0.666391362,0.472027215,1.15230173,0.152714687,NA,NA,0.671662547,condition_80cue
547,35,1,50,blue,S1-15.jpg,1,2,1,0,1.175116333,2,0.964223083,1.177214708,0.732151983,0,incongruent,4,1,0.85,0.15,0.8,0.2,0.7050698,0.7050698,0.718894698,0.470046533,NA,NA,NA,NA,-0.021520554,condition_80cue
548,35,1,51,yellow,S1-15.jpg,2,2,2,1,0.881330167,3,0.310599542,0.883790459,0.732151983,0,congruent,NA,2,0.75,0.75,0.8,0.8,0.674768409,0.674768409,0.688539193,0.206561758,NA,NA,NA,NA,-1.923521789,condition_80cue
549,35,1,52,yellow,S1-15.jpg,2,2,1,0,1.027514334,1,0.38308575,1.029734292,0.732151983,0,congruent,NA,2,0.75,0.75,0.8,0.8,0.860890388,0.860890388,0.874775717,0.166623946,NA,NA,NA,NA,-0.908917157,condition_80cue
550,35,1,53,blue,S2-19.jpg,1,1,1,1,0.953005667,4,0.511299708,0.955117167,0.633456344,0,congruent,4,1,0.85,0.85,0.8,0.8,0.801077227,0.801077227,0.814888904,0.15192844,NA,NA,NA,NA,-1.406595148,condition_80cue
551,35,1,54,blue,S2-19.jpg,1,1,1,1,1.001013667,3,0.788324583,1.00325675,0.633456344,0,congruent,4,1,0.85,0.85,0.8,0.8,0.959304764,0.959304764,0.973207732,0.041708903,NA,NA,NA,NA,-1.081666485,condition_80cue
552,35,1,56,blue,S2-19.jpg,1,1,1,1,1.036534291,4,0.2540095,1.038784166,0.633456344,0,congruent,4,1,0.85,0.85,0.8,0.8,0.635741032,0.635741032,0.649561489,0.400793259,NA,NA,NA,NA,-0.851133747,condition_80cue
553,35,1,57,yellow,S1-15.jpg,2,2,2,1,0.958622042,2,0.506553334,0.960697417,0.732151983,0,congruent,NA,2,0.75,0.75,0.8,0.8,0.666867507,0.666867507,0.680760581,0.291754535,NA,NA,NA,NA,-1.367747039,condition_80cue
554,35,1,58,red,S1-15.jpg,3,2,2,1,1.163645958,4,0.15764425,1.165745708,0.732151983,0,neutral,3,2,0.6,0.6,0.5,0.5,0.706499332,0.706499332,0.72035226,0.457146626,NA,NA,NA,NA,-0.086370688,condition_80cue
555,35,1,60,yellow,S1-15.jpg,2,2,1,0,1.27738575,3,0.804757666,1.279768125,0.732151983,0,congruent,NA,2,0.75,0.75,0.8,0.8,0.777539152,0.777539152,0.79142378,0.430423459,1.235731867,0.041653883,NA,NA,0.530180959,condition_80cue
556,35,1,61,blue,S2-19.jpg,1,1,1,1,0.939984042,4,0.285544875,0.942069083,0.633456344,0,congruent,4,1,0.85,0.85,0.8,0.8,0.663518147,0.663518147,0.677341442,0.276465895,NA,NA,NA,NA,-1.497552884,condition_80cue
557,35,1,62,red,S2-19.jpg,3,1,2,0,0.921829417,1,0.249219875,0.9240305,0.633456344,0,neutral,3,2,0.6,0.4,0.5,0.5,0.742966993,0.742966993,0.756725641,0.178862424,NA,NA,NA,NA,-1.626490829,condition_80cue
558,35,1,63,blue,S1-15.jpg,1,2,1,0,1.042254292,1,1.180101833,1.044371625,0.732151983,0,incongruent,4,1,0.85,0.15,0.8,0.2,0.736526366,0.736526366,0.75042309,0.305727926,NA,NA,NA,NA,-0.814750393,condition_80cue
559,35,1,65,blue,S2-19.jpg,1,1,1,1,0.97061975,4,0.342255,0.972713792,0.633456344,0,congruent,4,1,0.85,0.85,0.8,0.8,0.665567829,0.665567829,0.679433825,0.305051921,NA,NA,NA,NA,-1.28551651,condition_80cue
560,35,1,66,yellow,S1-15.jpg,2,2,2,1,1.130830625,4,0.151520167,1.133262041,0.732151983,0,congruent,NA,2,0.75,0.75,0.8,0.8,0.689530869,0.689530869,0.703321486,0.441299756,NA,NA,NA,NA,-0.27549121,condition_80cue
561,35,1,67,blue,S2-19.jpg,1,1,1,1,0.761395334,4,0.415644042,0.763831417,0.633456344,0,congruent,4,1,0.85,0.85,0.8,0.8,0.650646922,0.650646922,0.664490473,0.110748412,NA,NA,NA,NA,-2.890617906,condition_80cue
562,35,1,68,blue,S2-19.jpg,1,1,1,1,0.815393542,3,1.105244459,0.817474125,0.633456344,0,congruent,4,1,0.85,0.85,0.8,0.8,1.077977903,0.815393542,NA,NA,NA,NA,NA,NA,-2.437624875,condition_80cue
563,35,1,69,blue,S2-19.jpg,1,1,1,1,1.035806667,4,0.312921708,1.037930417,0.633456344,0,congruent,4,1,0.85,0.85,0.8,0.8,0.7457808,0.7457808,0.759591556,0.290025867,NA,NA,NA,NA,-0.855776352,condition_80cue
564,35,1,70,blue,S2-19.jpg,1,1,1,1,1.069180542,4,0.388293792,1.071365833,0.633456344,0,congruent,4,1,0.85,0.85,0.8,0.8,0.87478408,0.87478408,0.888669541,0.194396462,NA,NA,NA,NA,-0.646119323,condition_80cue
565,35,1,71,red,S2-19.jpg,3,1,2,0,1.03517,1,0.513528,1.037249292,0.633456344,0,neutral,3,2,0.6,0.4,0.5,0.5,0.648706533,0.648706533,0.6625088,0.386463467,NA,NA,NA,NA,-0.859841281,condition_80cue
566,35,1,72,red,S2-19.jpg,3,1,1,1,1.061058084,4,0.611376583,1.063144334,0.633456344,0,neutral,3,2,0.6,0.4,0.5,0.5,0.656180657,0.656180657,0.670141948,0.404877427,NA,NA,NA,NA,-0.696536344,condition_80cue
567,35,1,73,blue,S2-19.jpg,1,1,1,1,0.970424792,4,0.263493417,0.972887833,0.633456344,0,congruent,4,1,0.85,0.85,0.8,0.8,0.707023777,0.707023777,0.720886988,0.263401015,NA,NA,NA,NA,-1.286844581,condition_80cue
568,35,1,74,yellow,S2-19.jpg,2,1,1,1,1.147561208,4,0.261610458,1.1500365,0.633456344,0,incongruent,NA,2,0.75,0.25,0.8,0.2,0.635997778,0.635997778,0.649823817,0.51156343,NA,NA,NA,NA,-0.178394096,condition_80cue
569,35,1,75,red,S1-15.jpg,3,2,1,0,1.314578,1,0.223248208,1.316686,0.732151983,0,neutral,3,2,0.6,0.6,0.5,0.5,0.913285768,0.913285768,0.927123432,0.401292232,NA,NA,NA,NA,0.71992546,condition_80cue
570,35,1,76,yellow,S1-15.jpg,2,2,2,1,0.942650541,4,0.376415125,0.944766958,0.732151983,0,congruent,NA,2,0.75,0.75,0.8,0.8,0.67926289,0.67926289,0.693125398,0.263387651,NA,NA,NA,NA,-1.478824878,condition_80cue
571,35,1,77,yellow,S1-15.jpg,2,2,1,0,1.036663208,2,0.829103,1.038745625,0.732151983,0,congruent,NA,2,0.75,0.75,0.8,0.8,0.649642277,0.649642277,0.663464453,0.387020931,NA,NA,NA,NA,-0.850311532,condition_80cue
572,35,1,78,yellow,S1-15.jpg,2,2,1,0,1.219313084,2,0.993361958,1.221402875,0.732151983,0,congruent,NA,2,0.75,0.75,0.8,0.8,1.247024745,1.219313084,NA,NA,NA,NA,NA,NA,0.222571416,condition_80cue
573,35,1,79,blue,S1-15.jpg,1,2,2,1,1.474336292,3,2.231004291,1.476584958,0.732151983,0,incongruent,4,1,0.85,0.15,0.8,0.2,0.647605661,0.647605661,0.661384505,0.592490286,1.267653634,0.206682658,NA,NA,1.478188357,condition_80cue
574,35,1,80,yellow,S1-15.jpg,2,2,2,1,1.163551708,3,0.3834875,1.165630791,0.732151983,0,congruent,NA,2,0.75,0.75,0.8,0.8,0.678738496,0.678738496,0.692590302,0.484813212,NA,NA,NA,NA,-0.086906194,condition_80cue
575,35,1,81,blue,S1-15.jpg,1,2,2,1,1.093029375,4,0.43489625,1.095372667,0.732151983,0,incongruent,4,1,0.85,0.15,0.8,0.2,0.664119114,0.664119114,0.677954929,0.428910261,NA,NA,NA,NA,-0.50027056,condition_80cue
576,35,1,82,blue,S2-19.jpg,1,1,1,1,0.800376542,4,0.617072542,0.802189584,0.633456344,0,congruent,4,1,0.85,0.85,0.8,0.8,0.717578969,0.717578969,0.731378564,0.082797573,NA,NA,NA,NA,-2.560519243,condition_80cue
577,35,1,85,red,S1-15.jpg,3,2,2,1,1.08351625,2,0.4849775,1.085614916,0.732151983,0,neutral,3,2,0.6,0.6,0.5,0.5,1.055733782,1.055733782,1.069625016,0.027782468,NA,NA,NA,NA,-0.558063402,condition_80cue
578,35,1,86,blue,S2-19.jpg,1,1,1,1,1.007636542,4,0.451813959,1.009755917,0.633456344,0,congruent,4,1,0.85,0.85,0.8,0.8,0.634949054,0.634949054,0.648752294,0.372687488,NA,NA,NA,NA,-1.038069177,condition_80cue
579,35,1,87,red,S1-15.jpg,3,2,2,1,0.762244959,4,0.237791667,0.764394917,0.732151983,0,neutral,3,2,0.6,0.6,0.5,0.5,0.665231964,0.665231964,0.679090963,0.097012995,NA,NA,NA,NA,-2.883244626,condition_80cue
580,35,1,88,yellow,S1-15.jpg,2,2,2,1,1.203073292,4,0.38136525,1.205482709,0.732151983,0,congruent,NA,2,0.75,0.75,0.8,0.8,0.719078289,0.719078289,0.732906718,0.456338145,1.203073292,0,NA,NA,0.133925361,condition_80cue
581,35,1,89,blue,S2-19.jpg,1,1,1,1,1.053164417,4,0.792082875,1.05527,0.633456344,0,congruent,4,1,0.85,0.85,0.8,0.8,0.637441621,0.637441621,0.651299047,0.415722796,NA,NA,NA,NA,-0.745904396,condition_80cue
582,35,1,90,blue,S2-19.jpg,1,1,1,1,1.193763916,4,0.331606208,1.19614575,0.633456344,0,congruent,4,1,0.85,0.85,0.8,0.8,0.832858546,0.832858546,0.846739522,0.36090537,NA,NA,NA,NA,0.082568311,condition_80cue
583,35,1,91,blue,S2-19.jpg,1,1,1,1,0.759946166,3,0.485384583,0.762345166,0.633456344,0,congruent,4,1,0.85,0.85,0.8,0.8,1.133010647,0.759946166,NA,NA,NA,NA,NA,NA,-2.903213192,condition_80cue
584,35,1,92,blue,S2-19.jpg,1,1,2,0,1.097943167,2,0.538214,1.099749167,0.633456344,0,congruent,4,1,0.85,0.85,0.8,0.8,0.945065005,0.945065005,0.958963019,0.152878162,NA,NA,NA,NA,-0.470615663,condition_80cue
585,35,1,94,yellow,S1-15.jpg,2,2,2,1,1.258111208,4,0.2593785,1.260208125,0.732151983,0,congruent,NA,2,0.75,0.75,0.8,0.8,0.782824752,0.782824752,0.796803765,0.433349416,1.244132195,0.013979013,NA,NA,0.429662644,condition_80cue
586,35,1,96,yellow,S2-19.jpg,2,1,2,0,1.000713333,1,0.345544125,1.0029765,0.633456344,0,incongruent,NA,2,0.75,0.25,0.8,0.2,0.792231389,0.792231389,0.806130185,0.208481944,NA,NA,NA,NA,-1.083650366,condition_80cue
587,35,1,97,red,S2-19.jpg,3,1,2,0,1.17976675,2,1.270440083,1.181879583,0.633456344,0,neutral,3,2,0.6,0.4,0.5,0.5,0.666221224,0.666221224,0.680100832,0.513545526,NA,NA,NA,NA,0.004591376,condition_80cue
588,35,1,98,blue,S2-19.jpg,1,1,1,1,1.025522,4,0.497718292,1.02764925,0.633456344,0,congruent,4,1,0.85,0.85,0.8,0.8,0.679061865,0.679061865,0.69292027,0.346460135,NA,NA,NA,NA,-0.921748778,condition_80cue
589,35,1,99,blue,S2-19.jpg,1,1,1,1,1.064670875,4,0.31237275,1.066769417,0.633456344,0,congruent,4,1,0.85,0.85,0.8,0.8,0.746652302,0.746652302,0.760479196,0.318018573,NA,NA,NA,NA,-0.674063853,condition_80cue
590,35,1,100,yellow,S1-15.jpg,2,2,2,1,0.9729065,4,0.901515792,0.974992208,0.732151983,0,congruent,NA,2,0.75,0.75,0.8,0.8,0.653237221,0.653237221,0.667135886,0.319669279,NA,NA,NA,NA,-1.269958848,condition_80cue
591,35,1,101,blue,S2-19.jpg,1,1,1,1,1.083774708,4,0.854098333,1.086085958,0.633456344,0,congruent,4,1,0.85,0.85,0.8,0.8,0.95872378,0.95872378,0.972618328,0.125050928,NA,NA,NA,NA,-0.556486559,condition_80cue
592,35,1,102,blue,S2-19.jpg,1,1,1,1,0.969070041,4,0.256075792,0.971154583,0.633456344,0,congruent,4,1,0.85,0.85,0.8,0.8,0.747568317,0.747568317,0.761412175,0.221501724,NA,NA,NA,NA,-1.296080642,condition_80cue
593,35,1,103,blue,S2-19.jpg,1,1,1,1,0.957975042,4,0.333320292,0.959763208,0.633456344,0,congruent,4,1,0.85,0.85,0.8,0.8,0.680301117,0.680301117,0.694184813,0.277673925,NA,NA,NA,NA,-1.372210681,condition_80cue
594,35,1,104,blue,S2-19.jpg,1,1,1,1,1.012444875,4,0.275154084,1.014532375,0.633456344,0,congruent,4,1,0.85,0.85,0.8,0.8,0.679586286,0.679586286,0.693455394,0.332858589,NA,NA,NA,NA,-1.006595872,condition_80cue
595,35,1,105,yellow,S1-15.jpg,2,2,2,1,1.219952125,3,0.287197084,1.222154292,0.732151983,0,congruent,NA,2,0.75,0.75,0.8,0.8,0.651565339,0.651565339,0.665428432,0.471345139,1.150636663,0.069315462,NA,NA,0.226035478,condition_80cue
596,35,1,106,yellow,S1-15.jpg,2,2,2,1,1.14011175,4,0.013241167,1.142558667,0.732151983,0,congruent,NA,2,0.75,0.75,0.8,0.8,0.792516704,0.792516704,0.806420506,0.347595046,NA,NA,NA,NA,-0.221451528,condition_80cue
597,35,1,107,yellow,S2-19.jpg,2,1,1,1,1.12593775,2,0.254371792,1.128051584,0.633456344,0,incongruent,NA,2,0.75,0.25,0.8,0.2,1.12593775,1.12593775,NA,NA,NA,NA,NA,NA,-0.304158965,condition_80cue
598,35,1,108,blue,S2-19.jpg,1,1,1,1,1.221691084,4,1.120393708,1.223479667,0.633456344,0,congruent,4,1,0.85,0.85,0.8,0.8,0.971799726,0.971799726,0.985682579,0.249891358,NA,NA,NA,NA,0.235452706,condition_80cue
599,35,1,109,yellow,S2-19.jpg,2,1,1,1,1.081764083,NA,NA,1.083900875,0.633456344,0,incongruent,NA,2,0.75,0.25,0.8,0.2,0.707307285,0.707307285,0.721176055,0.374456798,NA,NA,NA,NA,-0.568763243,condition_80cue
600,35,1,110,blue,S2-19.jpg,1,1,2,0,0.914614,2,0.553418792,0.916705333,0.633456344,0,congruent,4,1,0.85,0.85,0.8,0.8,0.65131603,0.65131603,0.665173818,0.26329797,NA,NA,NA,NA,-1.678442794,condition_80cue
601,35,1,111,blue,S2-19.jpg,1,1,1,1,1.112960833,3,0.301477166,1.115190333,0.633456344,0,congruent,4,1,0.85,0.85,0.8,0.8,0.723424541,0.723424541,0.737336552,0.389536292,NA,NA,NA,NA,-0.380799376,condition_80cue
602,35,1,112,blue,S2-19.jpg,1,1,2,0,1.328531125,1,0.04638575,1.330994792,0.633456344,0,congruent,4,1,0.85,0.85,0.8,0.8,0.94104288,0.94104288,0.954881746,0.387488245,NA,NA,NA,NA,0.789728813,condition_80cue
603,35,1,114,blue,S2-19.jpg,1,1,1,1,1.135519291,4,0.28801975,1.137768375,0.633456344,0,congruent,4,1,0.85,0.85,0.8,0.8,0.650846423,0.650846423,0.664694219,0.484672868,NA,NA,NA,NA,-0.248136079,condition_80cue
604,35,1,116,blue,S2-19.jpg,1,1,1,1,1.124653458,2,0.45151275,1.126748375,0.633456344,0,congruent,4,1,0.85,0.85,0.8,0.8,0.680345919,0.680345919,0.69423053,0.444307539,NA,NA,NA,NA,-0.311704379,condition_80cue
605,35,1,117,yellow,S1-15.jpg,2,2,2,1,1.496363458,3,0.705868375,1.498594083,0.732151983,0,congruent,NA,2,0.75,0.75,0.8,0.8,0.720471295,0.720471295,0.734326512,0.609629557,1.357811286,0.138552172,NA,NA,1.576232958,condition_80cue
606,35,1,118,red,S1-15.jpg,3,2,2,1,1.248369042,4,0.330789,1.250555458,0.732151983,0,neutral,3,2,0.6,0.6,0.5,0.5,0.638055288,0.638055288,0.651926055,0.48547685,1.151273672,0.09709537,NA,NA,0.378269015,condition_80cue
607,35,1,119,yellow,S1-15.jpg,2,2,2,1,1.093321958,4,0.363791875,1.09541075,0.732151983,0,congruent,NA,2,0.75,0.75,0.8,0.8,0.830371107,0.830371107,0.844210626,0.262950851,NA,NA,NA,NA,-0.498501083,condition_80cue
608,35,1,120,blue,S2-19.jpg,1,1,1,1,1.363193041,4,0.8951355,1.365294208,0.633456344,0,congruent,4,1,0.85,0.85,0.8,0.8,1.015439714,1.015439714,1.029349847,0.347753327,NA,NA,NA,NA,0.960008122,condition_80cue
609,35,1,121,yellow,S1-15.jpg,2,2,1,0,0.988354209,3,0.658601291,0.990821042,0.732151983,0,congruent,NA,2,0.75,0.75,0.8,0.8,0.793467464,0.793467464,0.807387945,0.194886745,NA,NA,NA,NA,-1.16581021,condition_80cue
610,35,1,122,yellow,S1-15.jpg,2,2,2,1,1.484846167,3,0.535113041,1.4869075,0.732151983,0,congruent,NA,2,0.75,0.75,0.8,0.8,0.693853349,0.693853349,0.707730416,0.513451478,1.235058961,0.249787206,NA,NA,1.525150022,condition_80cue
611,35,1,123,red,S2-19.jpg,3,1,2,0,1.13560775,3,0.3466695,1.137825084,0.633456344,0,neutral,3,2,0.6,0.4,0.5,0.5,0.678594875,0.678594875,0.69244375,0.457012875,NA,NA,NA,NA,-0.247621068,condition_80cue
612,35,1,124,blue,S1-15.jpg,1,2,2,1,1.371901125,4,0.238621125,1.373994792,0.732151983,0,incongruent,4,1,0.85,0.15,0.8,0.2,0.651306595,0.651306595,0.665164182,0.582018659,1.261040428,0.110860697,NA,NA,1.002106722,condition_80cue
613,35,1,125,blue,S2-19.jpg,1,1,1,1,1.110873166,4,0.304393333,1.113341333,0.633456344,0,congruent,4,1,0.85,0.85,0.8,0.8,0.749839387,0.749839387,0.763725302,0.361033779,NA,NA,NA,NA,-0.393212322,condition_80cue
614,35,1,126,blue,S2-19.jpg,1,1,1,1,1.3187955,2,0.475368542,1.320937916,0.633456344,0,congruent,4,1,0.85,0.85,0.8,0.8,1.027272284,1.027272284,1.041154342,0.291523216,NA,NA,NA,NA,0.741102188,condition_80cue
615,35,1,127,red,S2-19.jpg,3,1,1,1,1.325800666,3,0.406102125,1.327932625,0.633456344,0,neutral,3,2,0.6,0.4,0.5,0.5,0.635279486,0.635279486,0.649089909,0.469554403,1.132454736,0.19334593,NA,NA,0.77612701,condition_80cue
616,35,1,128,yellow,S1-15.jpg,2,2,2,1,0.96950975,2,0.639202625,0.971603084,0.732151983,0,congruent,NA,2,0.75,0.75,0.8,0.8,0.872558775,0.872558775,0.886408914,0.096950975,NA,NA,NA,NA,-1.293081496,condition_80cue
617,35,1,129,red,S1-15.jpg,3,2,1,0,1.056341375,2,0.593171459,1.058433917,0.732151983,0,neutral,3,2,0.6,0.6,0.5,0.5,0.639364516,0.639364516,0.653263745,0.416976859,NA,NA,NA,NA,-0.725990926,condition_80cue
618,35,1,130,blue,S2-19.jpg,1,1,2,0,1.081476458,1,0.296053875,1.083932583,0.633456344,0,congruent,4,1,0.85,0.85,0.8,0.8,0.762579554,0.762579554,0.776444637,0.318896904,NA,NA,NA,NA,-0.570521319,condition_80cue
619,35,1,131,blue,S2-19.jpg,1,1,1,1,1.199681584,4,0.264444959,1.201783542,0.633456344,0,congruent,4,1,0.85,0.85,0.8,0.8,0.730840505,0.730840505,0.744629949,0.427472748,1.185892141,0.013789443,NA,NA,0.115260484,condition_80cue
620,35,1,132,yellow,S2-19.jpg,2,1,2,0,0.999355334,3,0.281604041,1.001485459,0.633456344,0,incongruent,NA,2,0.75,0.25,0.8,0.2,0.707876695,0.707876695,0.72175663,0.291478639,NA,NA,NA,NA,-1.092628177,condition_80cue
621,35,1,133,yellow,S1-15.jpg,2,2,1,0,1.176067959,2,1.034469458,1.178184542,0.732151983,0,congruent,NA,2,0.75,0.75,0.8,0.8,0.788657337,0.788657337,0.802493431,0.387410622,NA,NA,NA,NA,-0.016168808,condition_80cue
622,35,1,134,red,S1-15.jpg,3,2,1,0,1.399025208,3,0.279664,1.401110583,0.732151983,0,neutral,3,2,0.6,0.6,0.5,0.5,0.720290206,0.720290206,0.734141941,0.595624594,1.343618269,0.055406939,NA,NA,1.131544132,condition_80cue
623,35,1,135,red,S2-19.jpg,3,1,2,0,1.12216475,4,0.320140458,1.124258416,0.633456344,0,neutral,3,2,0.6,0.4,0.5,0.5,0.845087034,0.845087034,0.85894092,0.277077716,NA,NA,NA,NA,-0.32635048,condition_80cue
624,35,1,136,red,S2-19.jpg,3,1,2,0,0.957966125,2,0.301242125,0.960051125,0.633456344,0,neutral,3,2,0.6,0.4,0.5,0.5,1.096801795,0.957966125,NA,NA,NA,NA,NA,NA,-1.37227222,condition_80cue
625,35,1,137,yellow,S1-15.jpg,2,2,2,1,1.125015042,4,0.736565083,1.127289,0.732151983,0,congruent,NA,2,0.75,0.75,0.8,0.8,0.708342804,0.708342804,0.722231879,0.416672238,NA,NA,NA,NA,-0.309579146,condition_80cue
626,35,1,138,yellow,S2-19.jpg,2,1,1,1,1.107793125,4,0.423707458,1.109880042,0.633456344,0,incongruent,NA,2,0.75,0.25,0.8,0.2,0.706218117,0.706218117,0.720065531,0.401575008,NA,NA,NA,NA,-0.411568432,condition_80cue
627,35,1,139,blue,S2-19.jpg,1,1,1,1,1.125760625,4,0.254384083,1.127869458,0.633456344,0,congruent,4,1,0.85,0.85,0.8,0.8,0.667117407,0.667117407,0.681015687,0.458643218,NA,NA,NA,NA,-0.30519909,condition_80cue
628,35,1,140,yellow,S1-15.jpg,2,2,2,1,1.082217417,4,0.367908333,1.0843045,0.732151983,0,congruent,NA,2,0.75,0.75,0.8,0.8,0.73535286,0.73535286,0.749227443,0.346864557,NA,NA,NA,NA,-0.565993238,condition_80cue
629,35,1,141,blue,S2-19.jpg,1,1,1,1,1.11415075,4,0.47066475,1.116327833,0.633456344,0,congruent,4,1,0.85,0.85,0.8,0.8,0.696344219,0.696344219,0.710271103,0.417806531,NA,NA,NA,NA,-0.373734727,condition_80cue
630,35,1,143,yellow,S1-15.jpg,2,2,2,1,1.249099875,3,0.851016084,1.251199959,0.732151983,0,congruent,NA,2,0.75,0.75,0.8,0.8,1.249099875,1.249099875,NA,NA,NA,NA,NA,NA,0.382138329,condition_80cue
631,35,1,144,red,S1-15.jpg,3,2,2,1,1.094903333,4,0.240286875,1.097003917,0.732151983,0,neutral,3,2,0.6,0.6,0.5,0.5,0.720695865,0.720695865,0.734555401,0.374207468,NA,NA,NA,NA,-0.488945465,condition_80cue
632,35,1,145,yellow,S1-15.jpg,2,2,2,1,1.05583125,4,0.296582583,1.058275041,0.732151983,0,congruent,NA,2,0.75,0.75,0.8,0.8,0.639055757,0.639055757,0.652948273,0.416775493,NA,NA,NA,NA,-0.729184398,condition_80cue
633,35,1,146,yellow,S1-15.jpg,2,2,2,1,1.080010584,3,1.213664125,1.082108375,0.732151983,0,congruent,NA,2,0.75,0.75,0.8,0.8,0.706160766,0.706160766,0.720007056,0.373849818,NA,NA,NA,NA,-0.579488583,condition_80cue
634,35,1,147,red,S1-15.jpg,3,2,2,1,1.12350675,4,0.952188292,1.125607833,0.732151983,0,neutral,3,2,0.6,0.6,0.5,0.5,0.67410405,0.67410405,0.688147884,0.4494027,NA,NA,NA,NA,-0.31844875,condition_80cue
635,35,1,149,yellow,S1-15.jpg,2,2,2,1,1.245983583,3,0.812562625,1.248432667,0.732151983,0,congruent,NA,2,0.75,0.75,0.8,0.8,0.775278674,0.775278674,0.789122936,0.470704909,NA,NA,NA,NA,0.365623687,condition_80cue
636,35,1,150,blue,S2-19.jpg,1,1,1,1,1.386053083,4,0.271069667,1.3884585,0.633456344,0,congruent,4,1,0.85,0.85,0.8,0.8,0.720747603,0.720747603,0.734608134,0.457397517,1.205866182,0.180186901,NA,NA,1.069956612,condition_80cue
637,35,1,151,yellow,S1-15.jpg,2,2,2,1,1.3002785,3,0.629411458,1.302379375,0.732151983,0,congruent,NA,2,0.75,0.75,0.8,0.8,0.6916375,0.6916375,0.70547025,0.5256445,1.2449475,0.055331,NA,NA,0.647616322,condition_80cue
638,35,1,152,blue,S2-19.jpg,1,1,1,1,1.327565291,3,0.580667084,1.329639166,0.633456344,0,congruent,4,1,0.85,0.85,0.8,0.8,0.663782646,0.663782646,0.677611451,0.484008179,1.175448435,0.152116856,NA,NA,0.784920701,condition_80cue
639,35,1,153,yellow,S1-15.jpg,2,2,2,1,1.124537958,4,0.295817583,1.126980125,0.732151983,0,congruent,NA,2,0.75,0.75,0.8,0.8,0.652509679,0.652509679,0.666392864,0.472028279,NA,NA,NA,NA,-0.312383381,condition_80cue
640,35,1,154,yellow,S1-15.jpg,2,2,2,1,1.124153,3,1.150714708,1.126404791,0.732151983,0,congruent,NA,2,0.75,0.75,0.8,0.8,0.79107063,0.79107063,0.804949062,0.33308237,NA,NA,NA,NA,-0.31464698,condition_80cue
641,35,1,155,yellow,S2-19.jpg,2,1,2,0,1.315016584,1,0.2394825,1.317427292,0.633456344,0,incongruent,NA,2,0.75,0.25,0.8,0.2,0.83053679,0.83053679,0.84437907,0.484479794,NA,NA,NA,NA,0.722130822,condition_80cue
642,35,1,156,red,S1-15.jpg,3,2,1,0,0.76079625,1,0.281211541,0.763234375,0.732151983,0,neutral,3,2,0.6,0.6,0.5,0.5,0.677800295,0.677800295,0.691632955,0.082995955,NA,NA,NA,NA,-2.89582187,condition_80cue
643,35,1,157,blue,S2-19.jpg,1,1,1,1,1.183981083,4,0.261557459,1.186085292,0.633456344,0,congruent,4,1,0.85,0.85,0.8,0.8,0.821822163,0.821822163,0.835751353,0.36215892,NA,NA,NA,NA,0.028165959,condition_80cue
644,35,1,158,red,S2-19.jpg,3,1,1,1,1.26519,4,0.89667275,1.267288833,0.633456344,0,neutral,3,2,0.6,0.4,0.5,0.5,0.65344978,0.65344978,0.667352967,0.556127473,1.237383626,0.027806374,NA,NA,0.466756934,condition_80cue
645,35,1,159,blue,S2-19.jpg,1,1,1,1,1.105574375,4,0.427793958,1.107712709,0.633456344,0,congruent,4,1,0.85,0.85,0.8,0.8,0.690983984,0.690983984,0.704803664,0.414590391,NA,NA,NA,NA,-0.424823161,condition_80cue
646,35,1,161,red,S2-19.jpg,3,1,2,0,0.916382542,1,0.254571208,0.918493875,0.633456344,0,neutral,3,2,0.6,0.4,0.5,0.5,0.680344615,0.680344615,0.694229198,0.236037927,NA,NA,NA,NA,-1.665671236,condition_80cue
647,35,1,162,blue,S1-15.jpg,1,2,1,0,0.984806459,3,0.321243417,0.987123375,0.732151983,0,incongruent,4,1,0.85,0.15,0.8,0.2,0.651914135,0.651914135,0.665784648,0.332892324,NA,NA,NA,NA,-1.189584463,condition_80cue
648,35,1,163,blue,S2-19.jpg,1,1,1,1,1.232572042,4,0.518048833,1.234705417,0.633456344,0,congruent,4,1,0.85,0.85,0.8,0.8,0.678607079,0.678607079,0.692456203,0.44317197,1.149477298,0.083094744,NA,NA,0.294075257,condition_80cue
649,35,1,164,red,S1-15.jpg,3,2,2,1,1.216693959,4,0.24610425,1.219142625,0.732151983,0,neutral,3,2,0.6,0.6,0.5,0.5,0.746607657,0.746607657,0.760433724,0.470086302,NA,NA,NA,NA,0.208354883,condition_80cue
650,35,1,165,blue,S2-19.jpg,1,1,1,1,0.732763291,4,0.460281291,0.734851375,0.633456344,0,congruent,4,1,0.85,0.85,0.8,0.8,0.843369071,0.732763291,NA,NA,NA,NA,NA,NA,-3.144028437,condition_80cue
651,35,1,166,blue,S1-15.jpg,1,2,1,0,1.255458083,2,1.238638791,1.257922417,0.732151983,0,incongruent,4,1,0.85,0.15,0.8,0.2,0.85092159,0.85092159,0.864871124,0.404536493,NA,NA,NA,NA,0.41570594,condition_80cue
652,35,1,168,blue,S2-19.jpg,1,1,1,1,1.0110475,4,0.232248459,1.013425458,0.633456344,0,congruent,4,1,0.85,0.85,0.8,0.8,0.692498288,0.692498288,0.706348253,0.318549212,NA,NA,NA,NA,-1.015727061,condition_80cue
653,35,1,169,yellow,S1-15.jpg,2,2,2,1,1.175998,4,0.234757583,1.178070542,0.732151983,0,congruent,NA,2,0.75,0.75,0.8,0.8,0.816280965,0.816280965,0.830116235,0.359717035,NA,NA,NA,NA,-0.016562095,condition_80cue
654,35,1,171,yellow,S1-15.jpg,2,2,2,1,1.189059584,3,0.260641,1.191152917,0.732151983,0,congruent,NA,2,0.75,0.75,0.8,0.8,0.663661163,0.663661163,0.677487437,0.525398421,NA,NA,NA,NA,0.056463382,condition_80cue
655,35,1,172,yellow,S2-19.jpg,2,1,2,0,1.442785625,2,0.470903417,1.44490225,0.633456344,0,incongruent,NA,2,0.75,0.25,0.8,0.2,0.644350862,0.644350862,0.658358489,0.476259333,1.148625449,0.294160176,NA,NA,1.335171655,condition_80cue
656,35,1,173,yellow,S1-15.jpg,2,2,1,0,1.16453075,4,0.259352083,1.166637875,0.732151983,0,congruent,NA,2,0.75,0.75,0.8,0.8,0.693173065,0.693173065,0.707036527,0.429767301,1.150667289,0.013863461,NA,NA,-0.081345629,condition_80cue
657,35,1,174,yellow,S1-15.jpg,2,2,1,0,1.326549708,2,0.242594709,1.328931083,0.732151983,0,congruent,NA,2,0.75,0.75,0.8,0.8,0.663274854,0.663274854,0.67709308,0.566547271,1.257458577,0.069091131,NA,NA,0.779861155,condition_80cue
658,35,1,175,blue,S2-19.jpg,1,1,1,1,1.232287792,4,0.248823,1.234731125,0.633456344,0,congruent,4,1,0.85,0.85,0.8,0.8,0.664604652,0.664604652,0.678450582,0.56768314,NA,NA,NA,NA,0.292550418,condition_80cue
659,35,1,176,red,S1-15.jpg,3,2,2,1,1.513439667,3,0.320306292,1.515568833,0.732151983,0,neutral,3,2,0.6,0.6,0.5,0.5,0.846970823,0.846970823,0.86085559,0.444312563,1.319052921,0.194386746,NA,NA,1.651252411,condition_80cue
660,35,1,178,yellow,S1-15.jpg,2,2,2,1,1.346395292,4,0.617061334,1.348522833,0.732151983,0,congruent,NA,2,0.75,0.75,0.8,0.8,0.645147744,0.645147744,0.659172695,0.448798431,1.121996077,0.224399215,NA,NA,0.87803543,condition_80cue
661,35,1,179,red,S1-15.jpg,3,2,1,0,1.497093042,2,0.520225209,1.499188958,0.732151983,0,neutral,3,2,0.6,0.6,0.5,0.5,0.90102822,0.90102822,0.914890192,0.596064822,NA,NA,NA,NA,1.579455646,condition_80cue
662,35,1,180,yellow,S1-15.jpg,2,2,2,1,1.369887708,4,0.9120855,1.372152083,0.732151983,0,congruent,NA,2,0.75,0.75,0.8,0.8,0.767137116,0.767137116,0.780835994,0.438364067,1.232898937,0.136988771,NA,NA,0.992396801,condition_80cue
663,35,1,182,red,S1-15.jpg,3,2,2,1,1.129594416,4,0.353612333,1.13171025,0.732151983,0,neutral,3,2,0.6,0.6,0.5,0.5,0.730103708,0.730103708,0.74387925,0.399490708,NA,NA,NA,NA,-0.282722532,condition_80cue
664,35,1,184,blue,S2-19.jpg,1,1,1,1,1.368663458,4,0.356141167,1.370769166,0.633456344,0,congruent,4,1,0.85,0.85,0.8,0.8,0.64976952,0.64976952,0.663594404,0.56682022,1.244239507,0.124423951,NA,NA,0.986485744,condition_80cue
665,35,1,185,yellow,S1-15.jpg,2,2,2,1,1.245394708,3,0.6057585,1.24748,0.732151983,0,congruent,NA,2,0.75,0.75,0.8,0.8,0.733399106,0.733399106,0.747236825,0.511995602,NA,NA,NA,NA,0.362498333,condition_80cue
666,35,1,186,red,S2-19.jpg,3,1,2,0,1.890246875,1,0.863386667,1.892324458,0.633456344,0,neutral,3,2,0.6,0.4,0.5,0.5,0.667145956,0.667145956,0.68104483,0.500359467,1.195303171,0.653247082,1.862449127,0.041696622,3.121089483,condition_80cue
667,35,1,187,blue,S2-19.jpg,1,1,1,1,1.080042417,4,0.376308625,1.082222375,0.633456344,0,congruent,4,1,0.85,0.85,0.8,0.8,0.733874976,0.733874976,0.747721673,0.346167441,NA,NA,NA,NA,-0.57929372,condition_80cue
668,35,1,188,red,S2-19.jpg,3,1,2,0,1.205824834,1,0.033287375,1.207914042,0.633456344,0,neutral,3,2,0.6,0.4,0.5,0.5,0.790023167,0.790023167,0.803883223,0.415801667,NA,NA,NA,NA,0.149028728,condition_80cue
669,35,1,189,red,S1-15.jpg,3,2,2,1,1.284064125,3,0.217543417,1.286153708,0.732151983,0,neutral,3,2,0.6,0.6,0.5,0.5,0.745585621,0.745585621,0.759392762,0.497057081,1.270256984,0.013807141,NA,NA,0.564655761,condition_80cue
670,35,1,190,yellow,S1-15.jpg,2,2,2,1,1.186008166,4,0.316860208,1.188119041,0.732151983,0,congruent,NA,2,0.75,0.75,0.8,0.8,0.675748839,0.675748839,0.689539631,0.510259327,NA,NA,NA,NA,0.039475399,condition_80cue
671,35,1,192,yellow,S2-19.jpg,2,1,1,1,1.287674792,4,0.225775166,1.290121709,0.633456344,0,incongruent,NA,2,0.75,0.25,0.8,0.2,0.733836172,0.733836172,0.747682137,0.55383862,NA,NA,NA,NA,0.583219981,condition_80cue
672,35,1,193,blue,S1-15.jpg,1,2,1,0,1.203950125,2,0.231611625,1.206400042,0.732151983,0,incongruent,4,1,0.85,0.15,0.8,0.2,0.88566446,0.88566446,0.899502967,0.318285665,NA,NA,NA,NA,0.138742093,condition_80cue
673,35,1,194,blue,S2-19.jpg,1,1,1,1,1.135750375,4,0.322622166,1.137839167,0.633456344,0,congruent,4,1,0.85,0.85,0.8,0.8,0.803335631,0.803335631,0.817186245,0.332414744,NA,NA,NA,NA,-0.246790785,condition_80cue
674,35,1,195,yellow,S1-15.jpg,2,2,1,0,1.064578583,3,0.808434875,1.066688375,0.732151983,0,congruent,NA,2,0.75,0.75,0.8,0.8,0.635982011,0.635982011,0.649807707,0.428596572,NA,NA,NA,NA,-0.674636983,condition_80cue
675,35,1,196,yellow,S2-19.jpg,2,1,1,1,1.288506625,4,0.248723791,1.290607834,0.633456344,0,incongruent,NA,2,0.75,0.25,0.8,0.2,0.775874957,0.775874957,0.789729867,0.512631668,NA,NA,NA,NA,0.587489467,condition_80cue
676,35,1,197,yellow,S1-15.jpg,2,2,1,0,1.141642291,4,0.519059458,1.143428041,0.732151983,0,congruent,NA,2,0.75,0.75,0.8,0.8,0.668278414,0.668278414,0.682200881,0.445518943,1.141642291,0,NA,NA,-0.212582173,condition_80cue
677,35,1,198,yellow,S1-15.jpg,2,2,2,1,1.236993,4,0.198915542,1.239122042,0.732151983,0,congruent,NA,2,0.75,0.75,0.8,0.8,0.889523056,0.889523056,0.903421854,0.347469944,NA,NA,NA,NA,0.317746019,condition_80cue
678,35,1,199,red,S1-15.jpg,3,2,2,1,1.145886291,4,0.033931083,1.148000083,0.732151983,0,neutral,3,2,0.6,0.6,0.5,0.5,0.759322241,0.759322241,0.7731281,0.38656405,NA,NA,NA,NA,-0.188050611,condition_80cue
679,35,1,200,blue,S1-15.jpg,1,2,1,0,1.467922208,1,0.377273542,1.469998791,0.732151983,0,incongruent,4,1,0.85,0.15,0.8,0.2,1.010927558,1.010927558,1.024775881,0.45699465,NA,NA,NA,NA,1.449363287,condition_80cue
680,35,1,201,red,S1-15.jpg,3,2,2,1,1.112043917,1,0.211097875,1.11413675,0.732151983,0,neutral,3,2,0.6,0.6,0.5,0.5,0.722828546,0.722828546,0.736729095,0.389215371,NA,NA,NA,NA,-0.386248347,condition_80cue
681,35,1,202,blue,S2-19.jpg,1,1,1,1,1.357018125,4,0.27115975,1.359116666,0.633456344,0,congruent,4,1,0.85,0.85,0.8,0.8,0.996992908,0.996992908,1.010840032,0.360025217,NA,NA,NA,NA,0.929992659,condition_80cue
682,35,1,203,blue,S2-19.jpg,1,1,1,1,1.242400084,3,0.22409325,1.244482584,0.633456344,0,congruent,4,1,0.85,0.85,0.8,0.8,0.952506731,0.952506731,0.966311176,0.289893353,NA,NA,NA,NA,0.34658197,condition_80cue
683,35,1,204,yellow,S1-15.jpg,2,2,2,1,1.205554875,4,0.307788166,1.207636625,0.732151983,0,congruent,NA,2,0.75,0.75,0.8,0.8,0.734418487,0.734418487,0.74827544,0.471136388,NA,NA,NA,NA,0.147548434,condition_80cue
684,35,1,205,red,S1-15.jpg,3,2,2,1,1.020676291,4,0.222123459,1.022989041,0.732151983,0,neutral,3,2,0.6,0.6,0.5,0.5,0.634474451,0.634474451,0.648267374,0.38620184,NA,NA,NA,NA,-0.953061894,condition_80cue
685,35,1,206,blue,S2-19.jpg,1,1,1,1,1.136325833,4,0.172426708,1.138812583,0.633456344,0,congruent,4,1,0.85,0.85,0.8,0.8,0.692881605,0.692881605,0.706739238,0.443444228,NA,NA,NA,NA,-0.243441851,condition_80cue
686,35,1,208,yellow,S1-15.jpg,2,2,2,1,0.944241208,2,0.634050625,0.946401583,0.732151983,0,congruent,NA,2,0.75,0.75,0.8,0.8,0.930355308,0.930355308,0.944241208,0.0138859,NA,NA,NA,NA,-1.467678128,condition_80cue
687,35,1,209,red,S1-15.jpg,3,2,2,1,1.068805583,4,0.178308291,1.070888666,0.732151983,0,neutral,3,2,0.6,0.6,0.5,0.5,0.694029599,0.694029599,0.707910191,0.374775984,NA,NA,NA,NA,-0.648438291,condition_80cue
688,35,1,210,yellow,S1-15.jpg,2,2,2,1,0.951672041,4,0.288236959,0.95408775,0.732151983,0,congruent,NA,2,0.75,0.75,0.8,0.8,0.730994466,0.730994466,0.744786815,0.220677575,NA,NA,NA,NA,-1.41585339,condition_80cue
689,35,1,211,yellow,S2-19.jpg,2,1,2,0,1.057625417,1,0.2050475,1.0600645,0.633456344,0,incongruent,NA,2,0.75,0.25,0.8,0.2,0.667973948,0.667973948,0.681890071,0.389651469,NA,NA,NA,NA,-0.71795942,condition_80cue
690,35,1,212,blue,S2-19.jpg,1,1,1,1,1.110630583,4,0.297974542,1.112821125,0.633456344,0,congruent,4,1,0.85,0.85,0.8,0.8,0.805207173,0.805207173,0.819090055,0.30542341,NA,NA,NA,NA,-0.394656195,condition_80cue
691,35,1,213,yellow,S2-19.jpg,2,1,1,1,1.248677375,4,0.296733125,1.25048975,0.633456344,0,incongruent,NA,2,0.75,0.25,0.8,0.2,0.832451583,0.832451583,0.846325776,0.416225792,NA,NA,NA,NA,0.379901726,condition_80cue
692,35,1,214,blue,S2-19.jpg,1,1,1,1,1.243211292,4,0.3333055,1.245315542,0.633456344,0,congruent,4,1,0.85,0.85,0.8,0.8,0.635733047,0.635733047,0.649860448,0.508586438,1.172574287,0.070637005,NA,NA,0.350897309,condition_80cue
693,35,1,215,yellow,S1-15.jpg,2,2,1,0,1.258161708,4,0.6069375,1.260269125,0.732151983,0,congruent,NA,2,0.75,0.75,0.8,0.8,0.912512887,0.912512887,0.92633884,0.345648821,NA,NA,NA,NA,0.429928013,condition_80cue
694,35,1,216,blue,S2-19.jpg,1,1,1,1,1.258644292,3,0.294327375,1.260752625,0.633456344,0,congruent,4,1,0.85,0.85,0.8,0.8,0.636237774,0.636237774,0.65006903,0.428768935,1.092669221,0.165975071,NA,NA,0.432463369,condition_80cue
695,35,1,217,blue,S2-19.jpg,1,1,1,1,1.223498792,4,0.330861042,1.225596292,0.633456344,0,congruent,4,1,0.85,0.85,0.8,0.8,0.695169768,0.695169768,0.709073164,0.528329024,NA,NA,NA,NA,0.24522804,condition_80cue
696,35,1,218,yellow,S1-15.jpg,2,2,2,1,1.3587585,4,0.298317875,1.360861083,0.732151983,0,congruent,NA,2,0.75,0.75,0.8,0.8,0.637784602,0.637784602,0.651649485,0.720973898,NA,NA,NA,NA,0.938466196,condition_80cue
697,35,1,220,blue,S2-19.jpg,1,1,1,1,1.325517041,4,0.338799125,1.327605666,0.633456344,0,congruent,4,1,0.85,0.85,0.8,0.8,0.690961011,0.690961011,0.705062256,0.465341089,1.18450459,0.141012451,NA,NA,0.774712525,condition_80cue
698,35,1,221,blue,S2-19.jpg,1,1,1,1,1.248437167,3,0.176840375,1.250538084,0.633456344,0,congruent,4,1,0.85,0.85,0.8,0.8,0.818419921,0.818419921,0.832291445,0.430017246,NA,NA,NA,NA,0.378629791,condition_80cue
699,35,1,222,red,S2-19.jpg,3,1,2,0,1.135131166,2,0.473572667,1.137422666,0.633456344,0,neutral,3,2,0.6,0.4,0.5,0.5,0.69215315,0.69215315,0.705996213,0.442978016,NA,NA,NA,NA,-0.250396228,condition_80cue
700,35,1,223,blue,S2-19.jpg,1,1,1,1,1.246760084,4,0.236619458,1.249200042,0.633456344,0,congruent,4,1,0.85,0.85,0.8,0.8,0.651085822,0.651085822,0.664938711,0.470998254,1.149789855,0.096970229,NA,NA,0.369742578,condition_80cue
