subID,block,trial,targetImg,targetIdx,cue_rgb,cue_string,congruent,respFrame,response,accuracy,RT,confResp,confRT,flickerDuration,noise1frames,signal1frames,noise2frames,coherence,catch_trial
 26, 1, 1, S1-15.jpg, 1, [181 10 240], purple, NaN, 326, 2, 0, 3.8425, NaN, NaN, 3.8452,90,31,81,0.5940,0
 26, 1, 2, S2-19.jpg, 2, [240 168 10], orange, 1, 45, 2, 1, 0.5275, 1, 1.4537, 0.5295,115,28,140,0.6772,0
 26, 1, 3, S1-15.jpg, 1, [181 10 240], purple, NaN, 173, 2, 0, 2.0474, 3, 2.2067, 2.0505,109,49,107,0.5940,0
 26, 1, 4, S2-19.jpg, 2, [240 168 10], orange, 1, 251, 2, 1, 2.9441, 3, 1.9068, 2.9474,141,30,84,0.6772,0
 26, 1, 5, S1-15.jpg, 1, [10 240 94], green, 1, 247, 2, 0, 2.9074, 1, 1.2978, 2.9098,78,42,113,0.5940,1
 26, 1, 6, S2-19.jpg, 2, [240 168 10], orange, 1, 264, 2, 1, 3.0933, 1, 0.6307, 3.0944,116,28,88,0.6772,0
 26, 1, 7, S2-19.jpg, 2, [10 240 94], green, 0, 390, 1, 0, 4.5833, 2, 1.1635, 4.5844,95,52,119,0.6772,0
 26, 1, 8, S2-19.jpg, 2, [240 168 10], orange, 1, 507, 1, 0, 5.9573, 2, 1.4247, 5.9584,118,40,87,0.6772,0
 26, 1, 9, S2-19.jpg, 2, [240 168 10], orange, 1, NaN, 1, 0, 6.5004, 3, 1.1738, 6.3481,77,34,84,0.6772,0
 26, 1, 10, S2-19.jpg, 2, [240 168 10], orange, 1, 398, 1, 0, 4.6925, 3, 2.1969, 4.6944,87,38,119,0.6772,0
 26, 1, 11, S1-15.jpg, 1, [10 240 94], green, 1, 340, 2, 0, 3.9954, 2, 0.7059, 3.9975,87,33,78,0.5940,0
 26, 1, 12, S1-15.jpg, 1, [10 240 94], green, 1, 367, 1, 1, 4.3116, 4, 0.6804, 4.3137,77,27,90,0.5940,0
 26, 1, 13, S2-19.jpg, 2, [181 10 240], purple, NaN, 376, 2, 1, 4.4183, 1, 0.3221, 4.4201,88,48,83,0.6772,1
 26, 1, 14, S1-15.jpg, 1, [10 240 94], green, 1, 337, 1, 1, 3.9543, 3, 1.7495, 3.9554,77,53,131,0.5940,0
 26, 1, 15, S2-19.jpg, 2, [240 168 10], orange, 1, 254, 1, 0, 2.9826, 4, 0.7192, 2.9837,101,41,97,0.6772,0
 26, 1, 16, S2-19.jpg, 2, [181 10 240], purple, NaN, 212, 1, 0, 2.4851, 4, 0.5262, 2.4862,84,46,82,0.6772,0
 26, 1, 17, S1-15.jpg, 1, [10 240 94], green, 1, 349, 1, 1, 4.1051, 3, 0.4569, 4.1062,110,40,78,0.5940,0
 26, 1, 18, S2-19.jpg, 2, [240 168 10], orange, 1, 176, 1, 0, 2.0684, 4, 0.7639, 2.0696,82,41,106,0.6772,0
 26, 1, 19, S2-19.jpg, 2, [240 168 10], orange, 1, 473, 1, 0, 5.5610, 2, 0.5369, 5.5621,97,67,85,0.6772,0
 26, 1, 20, S2-19.jpg, 2, [181 10 240], purple, NaN, NaN, NaN, 0, NaN, 1, 0.8809, 6.3544,80,27,80,0.6772,0
 26, 1, 21, S2-19.jpg, 2, [10 240 94], green, 0, 306, 1, 0, 3.5964, 3, 0.7856, 3.5975,99,35,102,0.6772,0
 26, 1, 22, S1-15.jpg, 1, [10 240 94], green, 1, 348, 1, 1, 4.0911, 2, 0.4851, 4.0928,127,36,78,0.5940,0
 26, 1, 23, S2-19.jpg, 2, [181 10 240], purple, NaN, 224, 1, 0, 2.6288, 3, 0.3978, 2.6299,75,50,91,0.6772,0
 26, 1, 24, S2-19.jpg, 2, [240 168 10], orange, 1, 453, 1, 0, 5.3257, 2, 0.2803, 5.3270,87,26,97,0.6772,0
 26, 1, 25, S2-19.jpg, 2, [181 10 240], purple, NaN, 338, 1, 0, 3.9751, 1, 1.3386, 3.9770,93,31,109,0.6772,0
 26, 1, 26, S2-19.jpg, 2, [240 168 10], orange, 1, 264, 1, 0, 3.1012, 1, 0.3025, 3.1024,137,62,75,0.6772,0
 26, 1, 27, S1-15.jpg, 1, [10 240 94], green, 1, 186, 1, 1, 2.1856, 2, 0.4711, 2.1867,114,31,102,0.5940,0
 26, 1, 28, S2-19.jpg, 2, [240 168 10], orange, 1, 454, 1, 0, 5.3358, 1, 1.4083, 5.3370,82,36,83,0.6772,0
 26, 1, 29, S1-15.jpg, 1, [10 240 94], green, 1, 272, 1, 1, 3.1980, 3, 0.3372, 3.1993,89,83,95,0.5940,0
 26, 1, 30, S1-15.jpg, 1, [10 240 94], green, 1, NaN, 1, 1, 6.5828, 1, 1.4602, 6.3391,86,25,128,0.5940,1
 26, 1, 31, S1-15.jpg, 1, [10 240 94], green, 1, 177, 1, 1, 2.0759, 2, 1.4288, 2.0771,95,50,109,0.5940,0
 26, 1, 32, S2-19.jpg, 2, [10 240 94], green, 0, 281, 1, 0, 3.2958, 3, 0.9832, 3.2970,80,60,133,0.6772,0
 26, 1, 33, S1-15.jpg, 1, [10 240 94], green, 1, 257, 1, 1, 3.0206, 3, 0.7469, 3.0218,92,42,85,0.5940,0
 26, 1, 34, S1-15.jpg, 1, [240 168 10], orange, 0, 252, 1, 1, 2.9545, 1, 1.1314, 2.9556,80,41,91,0.5940,0
 26, 1, 35, S2-19.jpg, 2, [240 168 10], orange, 1, 528, 2, 1, 6.2008, 2, 0.7568, 6.2019,109,54,82,0.6772,0
 26, 1, 36, S2-19.jpg, 2, [240 168 10], orange, 1, 301, 2, 1, 3.5323, 4, 0.6848, 3.5335,82,35,96,0.6772,0
 26, 1, 37, S2-19.jpg, 2, [240 168 10], orange, 1, NaN, NaN, 0, NaN, 1, 0.4523, 6.3489,100,74,117,0.6772,0
 26, 1, 38, S1-15.jpg, 1, [10 240 94], green, 1, 242, 1, 1, 2.8326, 2, 0.2694, 2.8338,88,42,86,0.5940,0
 26, 1, 39, S2-19.jpg, 2, [181 10 240], purple, NaN, 375, 1, 0, 4.4090, 1, 0.2963, 4.4101,99,75,110,0.6772,0
 26, 1, 40, S2-19.jpg, 2, [181 10 240], purple, NaN, 308, 2, 1, 3.6171, 2, 0.7005, 3.6183,102,23,90,0.6772,0
 26, 1, 41, S1-15.jpg, 1, [240 168 10], orange, 0, 116, 1, 1, 1.3607, 1, 0.4535, 1.3619,100,28,77,0.5940,0
 26, 1, 42, S1-15.jpg, 1, [181 10 240], purple, NaN, 328, 2, 0, 3.8465, 3, 0.5600, 3.8476,92,58,82,0.5940,0
 26, 1, 43, S2-19.jpg, 2, [240 168 10], orange, 1, 354, 2, 1, 4.1645, 4, 1.2191, 4.1656,111,24,78,0.6772,0
 26, 1, 44, S2-19.jpg, 2, [10 240 94], green, 0, 328, 2, 1, 3.8571, 4, 0.4320, 3.8582,85,37,93,0.6772,0
 26, 1, 45, S2-19.jpg, 2, [10 240 94], green, 0, 260, 1, 0, 3.0596, 2, 0.7425, 3.0607,78,27,111,0.6772,0
 26, 1, 46, S2-19.jpg, 2, [10 240 94], green, 0, 262, 1, 0, 3.0779, 2, 0.4843, 3.0795,100,32,125,0.6772,0
 26, 1, 47, S2-19.jpg, 2, [181 10 240], purple, NaN, 407, 2, 1, 4.7815, 4, 0.8880, 4.7826,89,43,98,0.6772,0
 26, 1, 48, S1-15.jpg, 1, [10 240 94], green, 1, 209, 1, 1, 2.4480, 3, 0.4825, 2.4491,83,24,81,0.5940,0
 26, 1, 49, S1-15.jpg, 1, [10 240 94], green, 1, 283, 2, 0, 3.3266, 4, 0.3383, 3.3280,88,29,75,0.5940,0
 26, 1, 50, S1-15.jpg, 1, [181 10 240], purple, NaN, 224, 1, 1, 2.6309, 3, 0.6300, 2.6321,96,23,87,0.5940,0
 26, 1, 51, S2-19.jpg, 2, [240 168 10], orange, 1, 365, 2, 1, 4.2923, 4, 0.4672, 4.2934,118,59,97,0.6772,0
 26, 1, 52, S2-19.jpg, 2, [240 168 10], orange, 1, 388, 2, 1, 4.5639, 4, 1.3479, 4.5650,129,31,77,0.6772,0
 26, 1, 53, S2-19.jpg, 2, [240 168 10], orange, 1, 235, 1, 0, 2.7626, 3, 1.6187, 2.7638,88,32,126,0.6772,1
 26, 1, 54, S2-19.jpg, 2, [240 168 10], orange, 1, 333, 1, 0, 3.9166, 3, 0.5863, 3.9178,119,49,98,0.6772,0
 26, 1, 55, S2-19.jpg, 2, [240 168 10], orange, 1, 234, 1, 0, 2.7464, 3, 0.6968, 2.7476,99,47,84,0.6772,0
 26, 1, 56, S2-19.jpg, 2, [181 10 240], purple, NaN, 237, 1, 0, 2.7777, 3, 0.3822, 2.7788,195,32,103,0.6772,0
 26, 1, 57, S1-15.jpg, 1, [10 240 94], green, 1, 246, 1, 1, 2.8839, 3, 0.4109, 2.8851,111,25,95,0.5940,1
 26, 1, 58, S1-15.jpg, 1, [10 240 94], green, 1, 236, 1, 1, 2.7794, 2, 0.6337, 2.7806,76,30,88,0.5940,0
 26, 1, 59, S2-19.jpg, 2, [240 168 10], orange, 1, 264, 1, 0, 3.1036, 2, 0.4505, 3.1049,85,89,89,0.6772,0
 26, 1, 60, S2-19.jpg, 2, [240 168 10], orange, 1, 374, 1, 0, 4.3947, 2, 2.4501, 4.3958,76,25,85,0.6772,1
 26, 1, 61, S2-19.jpg, 2, [240 168 10], orange, 1, 218, 1, 0, 2.8646, 2, 0.3585, 2.8664,84,28,81,0.6772,0
 26, 1, 62, S2-19.jpg, 2, [240 168 10], orange, 1, 222, 1, 0, 2.6133, 3, 0.5709, 2.6152,77,29,80,0.6772,0
 26, 1, 63, S2-19.jpg, 2, [10 240 94], green, 0, 384, 1, 0, 4.5404, 2, 0.2739, 4.5425,100,24,114,0.6772,0
 26, 1, 64, S2-19.jpg, 2, [10 240 94], green, 0, 305, 2, 1, 3.6001, 3, 0.2452, 3.6020,103,65,87,0.6772,0
 26, 1, 65, S1-15.jpg, 1, [10 240 94], green, 1, 320, 1, 1, 3.7740, 2, 1.6830, 3.7761,77,48,87,0.5940,0
 26, 1, 66, S1-15.jpg, 1, [10 240 94], green, 1, 427, 2, 0, 5.0256, 2, 0.8413, 5.0277,108,24,91,0.5940,0
 26, 1, 67, S1-15.jpg, 1, [10 240 94], green, 1, 277, 2, 0, 3.2593, 3, 0.4298, 3.2614,93,41,81,0.5940,0
 26, 1, 68, S1-15.jpg, 1, [181 10 240], purple, NaN, 369, 1, 1, 4.3644, 3, 0.5628, 4.3665,95,45,76,0.5940,0
 26, 1, 69, S2-19.jpg, 2, [240 168 10], orange, 1, 433, 1, 0, 5.1000, 3, 0.6992, 5.1022,98,30,101,0.6772,0
 26, 1, 70, S2-19.jpg, 2, [240 168 10], orange, 1, 349, 2, 1, 4.1442, 3, 0.4321, 4.1463,96,29,122,0.6772,0
 26, 1, 71, S1-15.jpg, 1, [240 168 10], orange, 0, 180, 1, 1, 2.1294, 2, 1.8492, 2.1310,87,67,81,0.5940,0
 26, 1, 72, S2-19.jpg, 2, [240 168 10], orange, 1, 396, 1, 0, 4.6731, 2, 0.3254, 4.6752,83,34,103,0.6772,0
 26, 1, 73, S1-15.jpg, 1, [181 10 240], purple, NaN, 260, 1, 1, 3.0758, 2, 1.0116, 3.0779,96,58,115,0.5940,0
 26, 1, 74, S1-15.jpg, 1, [181 10 240], purple, NaN, 518, 1, 1, 6.1119, 2, 0.4451, 6.1140,128,86,195,0.5940,0
 26, 1, 75, S1-15.jpg, 1, [10 240 94], green, 1, 247, 2, 0, 2.8987, 3, 0.6334, 2.9005,79,40,79,0.5940,0
 26, 1, 76, S1-15.jpg, 1, [240 168 10], orange, 0, 381, 2, 0, 4.5262, 2, 0.7938, 4.5283,91,57,96,0.5940,0
 26, 1, 77, S1-15.jpg, 1, [181 10 240], purple, NaN, 314, 2, 0, 3.6955, 3, 0.5038, 3.6973,89,32,114,0.5940,1
 26, 1, 78, S2-19.jpg, 2, [10 240 94], green, 0, 372, 2, 1, 4.3745, 2, 0.5799, 4.3767,116,33,120,0.6772,0
 26, 1, 79, S1-15.jpg, 1, [181 10 240], purple, NaN, 181, 2, 0, 2.1199, 3, 0.4039, 2.1217,91,38,116,0.5940,0
 26, 1, 80, S2-19.jpg, 2, [240 168 10], orange, 1, 286, 2, 1, 3.3645, 3, 0.2980, 3.3664,83,54,81,0.6772,0
 26, 1, 81, S1-15.jpg, 1, [10 240 94], green, 1, 245, 2, 0, 2.8749, 3, 0.5821, 2.8768,90,87,141,0.5940,0
 26, 1, 82, S2-19.jpg, 2, [240 168 10], orange, 1, 192, 1, 0, 2.2683, 3, 0.2820, 2.2701,78,88,99,0.6772,0
 26, 1, 83, S2-19.jpg, 2, [181 10 240], purple, NaN, 331, 2, 1, 3.8886, 3, 0.3499, 3.8907,93,25,120,0.6772,0
 26, 1, 84, S1-15.jpg, 1, [181 10 240], purple, NaN, 348, 2, 0, 4.1255, 3, 0.3142, 4.1276,83,51,94,0.5940,0
 26, 1, 85, S2-19.jpg, 2, [240 168 10], orange, 1, 275, 2, 1, 3.2340, 3, 0.3804, 3.2361,88,90,77,0.6772,0
 26, 1, 86, S1-15.jpg, 1, [10 240 94], green, 1, 350, 2, 0, 4.1189, 3, 0.4801, 4.1209,84,54,79,0.5940,1
 26, 1, 87, S2-19.jpg, 2, [240 168 10], orange, 1, 361, 2, 1, 4.2453, 3, 0.2344, 4.2474,76,28,84,0.6772,0
 26, 1, 88, S2-19.jpg, 2, [240 168 10], orange, 1, 450, 2, 1, 5.3018, 3, 0.2336, 5.3039,139,23,83,0.6772,0
 26, 1, 89, S2-19.jpg, 2, [181 10 240], purple, NaN, 482, 1, 0, 5.6896, 3, 0.2709, 5.6913,85,32,84,0.6772,0
 26, 1, 90, S1-15.jpg, 1, [10 240 94], green, 1, 507, 1, 1, 5.9594, 3, 0.0332, 5.9615,84,33,103,0.5940,0
 26, 1, 91, S1-15.jpg, 1, [240 168 10], orange, 0, 426, 2, 0, 5.0094, 3, 0.2064, 5.0115,97,36,138,0.5940,1
 26, 1, 92, S2-19.jpg, 2, [240 168 10], orange, 1, 537, 2, 1, 6.3178, 3, 0.5319, 6.3199,114,36,86,0.6772,0
 26, 1, 93, S1-15.jpg, 1, [10 240 94], green, 1, 316, 1, 1, 3.7345, 2, 0.4757, 3.7364,75,24,108,0.5940,0
 26, 1, 94, S1-15.jpg, 1, [10 240 94], green, 1, NaN, NaN, 0, NaN, 1, 0.3327, 6.3579,107,77,89,0.5940,0
 26, 1, 95, S1-15.jpg, 1, [10 240 94], green, 1, 221, 2, 0, 2.5925, 1, 0.2604, 2.5944,77,85,82,0.5940,0
 26, 1, 96, S1-15.jpg, 1, [10 240 94], green, 1, 231, 2, 0, 2.7325, 1, 0.2920, 2.7347,79,56,142,0.5940,0
 26, 1, 97, S2-19.jpg, 2, [10 240 94], green, 0, 263, 2, 1, 3.0914, 2, 0.2859, 3.0935,80,53,79,0.6772,1
 26, 1, 98, S2-19.jpg, 2, [240 168 10], orange, 1, 285, 2, 1, 3.3459, 3, 0.4218, 3.3480,89,25,85,0.6772,0
 26, 1, 99, S2-19.jpg, 2, [240 168 10], orange, 1, 195, 1, 0, 2.3020, 3, 0.1056, 2.3040,76,27,91,0.6772,0
 26, 1, 100, S2-19.jpg, 2, [181 10 240], purple, NaN, 295, 2, 1, 3.4998, 3, 0.1791, 3.5016,102,37,78,0.6772,0
 26, 1, 101, S2-19.jpg, 2, [181 10 240], purple, NaN, 354, 2, 1, 4.1818, 4, 0.5235, 4.1836,102,47,80,0.6772,1
 26, 1, 102, S2-19.jpg, 2, [240 168 10], orange, 1, 314, 2, 1, 3.6942, 3, 0.1211, 3.6960,86,39,95,0.6772,0
 26, 1, 103, S2-19.jpg, 2, [240 168 10], orange, 1, 247, 1, 0, 2.8989, 3, 0.5142, 2.9009,92,39,130,0.6772,0
 26, 1, 104, S2-19.jpg, 2, [240 168 10], orange, 1, 394, 1, 0, 4.6552, 1, 0.8257, 4.6574,83,38,80,0.6772,0
 26, 1, 105, S1-15.jpg, 1, [10 240 94], green, 1, 369, 1, 1, 4.3696, 4, 1.1655, 4.3715,92,25,109,0.5940,0
 26, 1, 106, S2-19.jpg, 2, [240 168 10], orange, 1, 361, 1, 0, 4.2616, 3, 0.2642, 4.2637,97,62,92,0.6772,0
 26, 1, 107, S2-19.jpg, 2, [240 168 10], orange, 1, 293, 1, 0, 3.4447, 3, 0.0396, 3.4468,104,42,90,0.6772,0
 26, 1, 108, S2-19.jpg, 2, [240 168 10], orange, 1, 375, 1, 0, 4.4228, 3, 0.3904, 4.4249,83,32,94,0.6772,0
 26, 1, 109, S2-19.jpg, 2, [240 168 10], orange, 1, 361, 1, 0, 4.2405, 3, 0.4732, 4.2428,78,51,90,0.6772,0
 26, 1, 110, S1-15.jpg, 1, [240 168 10], orange, 0, 384, 1, 1, 4.5198, 2, 0.4946, 4.5219,89,33,86,0.5940,0
 26, 1, 111, S1-15.jpg, 1, [181 10 240], purple, NaN, 333, 2, 0, 3.9329, 2, 0.2716, 3.9351,107,57,79,0.5940,0
 26, 1, 112, S1-15.jpg, 1, [10 240 94], green, 1, 282, 1, 1, 3.3129, 4, 0.8557, 3.3152,103,39,80,0.5940,0
 26, 1, 113, S2-19.jpg, 2, [240 168 10], orange, 1, 339, 2, 1, 3.9846, 3, 1.0214, 3.9867,91,26,92,0.6772,0
 26, 1, 114, S1-15.jpg, 1, [10 240 94], green, 1, 411, 2, 0, 4.8605, 1, 1.4998, 4.8627,82,28,84,0.5940,0
 26, 1, 115, S2-19.jpg, 2, [240 168 10], orange, 1, 243, 1, 0, 2.8590, 3, 0.5543, 2.8608,80,29,100,0.6772,1
 26, 1, 116, S2-19.jpg, 2, [240 168 10], orange, 1, 320, 2, 1, 3.7716, 4, 0.7871, 3.7739,76,30,88,0.6772,0
 26, 1, 117, S1-15.jpg, 1, [181 10 240], purple, NaN, 349, 1, 1, 4.1095, 4, 2.0168, 4.1115,78,26,100,0.5940,0
 26, 1, 118, S1-15.jpg, 1, [10 240 94], green, 1, 292, 1, 1, 3.4361, 3, 0.5392, 3.4382,92,32,92,0.5940,0
 26, 1, 119, S2-19.jpg, 2, [181 10 240], purple, NaN, 276, 1, 0, 3.2432, 4, 0.9088, 3.2453,97,24,112,0.6772,0
 26, 1, 120, S1-15.jpg, 1, [10 240 94], green, 1, 342, 2, 0, 4.0137, 4, 0.6375, 4.0157,75,55,78,0.5940,0
 26, 1, 121, S1-15.jpg, 1, [10 240 94], green, 1, 340, 2, 0, 4.0220, 4, 0.5591, 4.0241,106,27,76,0.5940,0
 26, 1, 122, S2-19.jpg, 2, [240 168 10], orange, 1, 322, 2, 1, 3.7996, 4, 1.1905, 3.8018,81,35,107,0.6772,0
 26, 1, 123, S1-15.jpg, 1, [10 240 94], green, 1, 323, 2, 0, 3.8296, 3, 0.6755, 3.8317,107,24,76,0.5940,0
 26, 1, 124, S2-19.jpg, 2, [181 10 240], purple, NaN, 315, 2, 1, 3.6942, 4, 0.7449, 3.6963,138,45,83,0.6772,0
 26, 1, 125, S2-19.jpg, 2, [240 168 10], orange, 1, 333, 1, 0, 3.9338, 3, 0.3547, 3.9359,85,45,80,0.6772,0
 26, 1, 126, S2-19.jpg, 2, [10 240 94], green, 0, 297, 1, 0, 3.4879, 3, 0.5615, 3.4900,94,28,95,0.6772,0
 26, 1, 127, S1-15.jpg, 1, [10 240 94], green, 1, 319, 1, 1, 3.7487, 3, 0.9925, 3.7508,81,28,83,0.5940,1
 26, 1, 128, S1-15.jpg, 1, [10 240 94], green, 1, 383, 1, 1, 4.4972, 4, 0.4572, 4.4992,86,40,84,0.5940,0
 26, 1, 129, S2-19.jpg, 2, [240 168 10], orange, 1, 345, 1, 0, 4.0913, 2, 0.7170, 4.0934,94,36,85,0.6772,0
 26, 1, 130, S1-15.jpg, 1, [10 240 94], green, 1, 267, 2, 0, 3.1493, 3, 0.5931, 3.1514,76,79,85,0.5940,0
 26, 1, 131, S1-15.jpg, 1, [10 240 94], green, 1, 374, 1, 1, 4.4010, 3, 0.3030, 4.4029,93,55,110,0.5940,0
 26, 1, 132, S2-19.jpg, 2, [240 168 10], orange, 1, 443, 1, 0, 5.2524, 3, 1.6717, 5.2543,87,37,87,0.6772,0
 26, 1, 133, S2-19.jpg, 2, [240 168 10], orange, 1, 420, 2, 1, 4.9467, 3, 0.2703, 4.9488,86,31,95,0.6772,1
 26, 1, 134, S1-15.jpg, 1, [240 168 10], orange, 0, 260, 1, 1, 3.0752, 3, 0.5382, 3.0770,79,53,82,0.5940,0
 26, 1, 135, S1-15.jpg, 1, [10 240 94], green, 1, NaN, 1, 1, 6.4372, 1, 0.2863, 6.3632,134,45,83,0.5940,0
 26, 1, 136, S2-19.jpg, 2, [240 168 10], orange, 1, 263, 1, 0, 3.0855, 2, 0.6035, 3.0876,112,44,113,0.6772,0
 26, 1, 137, S2-19.jpg, 2, [181 10 240], purple, NaN, 274, 1, 0, 3.2403, 3, 2.1059, 3.2422,120,35,127,0.6772,1
 26, 1, 138, S2-19.jpg, 2, [240 168 10], orange, 1, 433, 1, 0, 5.1132, 2, 0.1751, 5.1152,103,59,88,0.6772,0
 26, 1, 139, S1-15.jpg, 1, [10 240 94], green, 1, 407, 1, 1, 4.7976, 2, 0.5543, 4.7998,104,37,75,0.5940,0
 26, 1, 140, S1-15.jpg, 1, [10 240 94], green, 1, 308, 1, 1, 3.6168, 3, 0.2727, 3.6186,76,32,82,0.5940,1
 26, 1, 141, S2-19.jpg, 2, [181 10 240], purple, NaN, 352, 1, 0, 4.1344, 3, 1.0427, 4.1363,78,26,89,0.6772,0
 26, 1, 142, S1-15.jpg, 1, [240 168 10], orange, 0, 509, 1, 1, 5.9895, 3, 0.9704, 5.9916,91,29,105,0.5940,0
 26, 1, 143, S2-19.jpg, 2, [240 168 10], orange, 1, 465, 1, 0, 5.4714, 2, 0.2977, 5.4736,80,44,93,0.6772,0
 26, 1, 144, S1-15.jpg, 1, [10 240 94], green, 1, NaN, NaN, 0, NaN, 1, 0.2455, 6.3590,81,33,101,0.5940,0
 26, 1, 145, S2-19.jpg, 2, [10 240 94], green, 0, 234, 2, 1, 2.7493, 1, 0.3225, 2.7513,78,26,76,0.6772,0
 26, 1, 146, S1-15.jpg, 1, [181 10 240], purple, NaN, 409, 1, 1, 4.8129, 2, 0.5131, 4.8147,82,34,76,0.5940,1
 26, 1, 147, S2-19.jpg, 2, [181 10 240], purple, NaN, 296, 1, 0, 3.5147, 3, 0.7321, 3.5166,113,25,100,0.6772,0
 26, 1, 148, S1-15.jpg, 1, [10 240 94], green, 1, 328, 1, 1, 3.8640, 2, 0.7606, 3.8662,106,32,87,0.5940,0
 26, 1, 149, S1-15.jpg, 1, [10 240 94], green, 1, 334, 1, 1, 3.9294, 3, 0.0554, 3.9313,82,51,81,0.5940,0
 26, 1, 150, S2-19.jpg, 2, [240 168 10], orange, 1, 528, 1, 0, 6.2214, 2, 0.2436, 6.2235,103,44,112,0.6772,0
 26, 1, 151, S1-15.jpg, 1, [10 240 94], green, 1, 485, 2, 0, 5.7167, 2, 0.5604, 5.7188,77,37,77,0.5940,0
 26, 1, 152, S1-15.jpg, 1, [181 10 240], purple, NaN, 278, 1, 1, 3.2778, 4, 0.6179, 3.2797,83,30,137,0.5940,0
 26, 1, 153, S1-15.jpg, 1, [181 10 240], purple, NaN, 489, 1, 1, 5.7549, 2, 0.3425, 5.7570,86,29,105,0.5940,0
 26, 1, 154, S2-19.jpg, 2, [240 168 10], orange, 1, 375, 2, 1, 4.4057, 3, 0.2423, 4.4076,76,33,99,0.6772,0
 26, 1, 155, S1-15.jpg, 1, [10 240 94], green, 1, 435, 2, 0, 5.1299, 3, 0.2244, 5.1320,91,29,90,0.5940,0
 26, 1, 156, S1-15.jpg, 1, [10 240 94], green, 1, 405, 2, 0, 4.7802, 3, 0.0011, 4.7820,133,23,79,0.5940,0
 26, 1, 157, S2-19.jpg, 2, [181 10 240], purple, NaN, 487, 2, 1, 5.7353, 3, 2.2967, 5.7374,82,41,79,0.6772,0
 26, 1, 158, S2-19.jpg, 2, [181 10 240], purple, NaN, NaN, 2, 1, 6.4142, 3, 1.8610, 6.3555,140,39,81,0.6772,0
 26, 1, 159, S2-19.jpg, 2, [181 10 240], purple, NaN, 450, 1, 0, 5.3317, 2, 0.2087, 5.3338,76,51,132,0.6772,0
 26, 1, 160, S1-15.jpg, 1, [10 240 94], green, 1, 470, 1, 1, 5.5374, 2, 0.3210, 5.5393,98,68,102,0.5940,0
 26, 1, 161, S1-15.jpg, 1, [240 168 10], orange, 0, 386, 1, 1, 4.5332, 3, 0.2875, 4.5355,121,46,80,0.5940,0
 26, 1, 162, S2-19.jpg, 2, [240 168 10], orange, 1, 484, 1, 0, 5.7162, 3, 2.6825, 5.7183,75,61,86,0.6772,0
 26, 1, 163, S1-15.jpg, 1, [181 10 240], purple, NaN, 496, 2, 0, 5.8649, 1, 0.2895, 5.8666,110,39,76,0.5940,0
 26, 1, 164, S2-19.jpg, 2, [10 240 94], green, 0, 363, 1, 0, 4.2558, 2, 0.5022, 4.2569,75,44,83,0.6772,0
 26, 1, 165, S2-19.jpg, 2, [10 240 94], green, 0, 358, 1, 0, 4.2213, 1, 0.8436, 4.2234,112,58,121,0.6772,0
 26, 1, 166, S1-15.jpg, 1, [10 240 94], green, 1, 353, 2, 0, 4.1705, 2, 0.5815, 4.1723,78,76,83,0.5940,0
 26, 1, 167, S1-15.jpg, 1, [10 240 94], green, 1, 407, 2, 0, 4.7903, 3, 0.2905, 4.7922,79,35,77,0.5940,0
 26, 1, 168, S1-15.jpg, 1, [10 240 94], green, 1, 456, 2, 0, 5.3763, 2, 0.2339, 5.3784,126,27,90,0.5940,0
 26, 1, 169, S2-19.jpg, 2, [181 10 240], purple, NaN, NaN, 2, 1, 6.3810, 2, 1.5584, 6.3633,102,64,80,0.6772,0
 26, 1, 170, S1-15.jpg, 1, [240 168 10], orange, 0, 381, 2, 0, 4.4929, 3, 0.1066, 4.4948,78,52,117,0.5940,0
 26, 1, 171, S1-15.jpg, 1, [10 240 94], green, 1, 525, 2, 0, 6.1808, 3, 0.2880, 6.1829,86,38,86,0.5940,0
 26, 1, 172, S2-19.jpg, 2, [181 10 240], purple, NaN, 426, 1, 0, 5.0099, 3, 0.0011, 5.0119,77,40,110,0.6772,0
 26, 1, 173, S1-15.jpg, 1, [10 240 94], green, 1, 530, 2, 0, 6.2755, 1, 0.2567, 6.2774,78,63,195,0.5940,1
 26, 1, 174, S1-15.jpg, 1, [10 240 94], green, 1, 383, 1, 1, 4.5154, 4, 0.6030, 4.5172,84,27,76,0.5940,0
 26, 1, 175, S2-19.jpg, 2, [240 168 10], orange, 1, NaN, NaN, 0, NaN, 1, 0.8658, 6.3677,94,49,75,0.6772,0
 26, 1, 176, S2-19.jpg, 2, [10 240 94], green, 0, 285, 2, 1, 3.3534, 2, 0.1920, 3.3552,90,43,80,0.6772,0
 26, 1, 177, S1-15.jpg, 1, [10 240 94], green, 1, 414, 1, 1, 4.8603, 2, 1.5376, 4.8621,106,43,89,0.5940,0
 26, 1, 178, S2-19.jpg, 2, [10 240 94], green, 0, 404, 1, 0, 4.7564, 3, 0.2102, 4.7586,81,26,88,0.6772,0
 26, 1, 179, S1-15.jpg, 1, [10 240 94], green, 1, 521, 2, 0, 6.1670, 2, 0.2683, 6.1691,119,91,75,0.5940,0
 26, 1, 180, S1-15.jpg, 1, [10 240 94], green, 1, 339, 1, 1, 3.9910, 2, 0.0011, 3.9929,83,48,124,0.5940,0
 26, 1, 181, S2-19.jpg, 2, [240 168 10], orange, 1, 170, 1, 0, 1.9950, 3, 0.3500, 1.9971,84,50,77,0.6772,0
 26, 1, 182, S1-15.jpg, 1, [181 10 240], purple, NaN, 318, 2, 0, 3.7408, 2, 0.5009, 3.7429,136,56,80,0.5940,0
 26, 1, 183, S1-15.jpg, 1, [240 168 10], orange, 0, 198, 1, 1, 2.3281, 3, 0.2935, 2.3302,84,73,102,0.5940,0
 26, 1, 184, S1-15.jpg, 1, [10 240 94], green, 1, 343, 1, 1, 4.0281, 3, 0.2803, 4.0302,79,34,77,0.5940,0
 26, 1, 185, S1-15.jpg, 1, [10 240 94], green, 1, 384, 1, 1, 4.5117, 3, 0.9438, 4.5138,109,64,97,0.5940,0
 26, 1, 186, S1-15.jpg, 1, [240 168 10], orange, 0, 248, 2, 0, 2.9470, 1, 0.2686, 2.9491,93,31,92,0.5940,0
 26, 1, 187, S2-19.jpg, 2, [240 168 10], orange, 1, 233, 2, 1, 2.7488, 2, 0.6162, 2.7507,117,49,118,0.6772,0
 26, 1, 188, S2-19.jpg, 2, [240 168 10], orange, 1, 314, 1, 0, 3.6913, 2, 0.7154, 3.6934,89,48,93,0.6772,0
 26, 1, 189, S2-19.jpg, 2, [181 10 240], purple, NaN, 303, 2, 1, 3.5634, 2, 0.7006, 3.5653,82,36,89,0.6772,0
 26, 1, 190, S2-19.jpg, 2, [10 240 94], green, 0, 393, 1, 0, 4.6217, 2, 0.0390, 4.6238,96,26,115,0.6772,0
 26, 1, 191, S1-15.jpg, 1, [10 240 94], green, 1, 268, 1, 1, 3.1448, 3, 1.2170, 3.1469,115,47,85,0.5940,0
 26, 1, 192, S2-19.jpg, 2, [240 168 10], orange, 1, 240, 2, 1, 2.8131, 4, 0.5680, 2.8152,131,34,76,0.6772,1
 26, 1, 193, S2-19.jpg, 2, [181 10 240], purple, NaN, 343, 2, 1, 4.0485, 4, 0.8098, 4.0504,108,52,136,0.6772,0
 26, 1, 194, S1-15.jpg, 1, [10 240 94], green, 1, 287, 2, 0, 3.3728, 4, 0.7052, 3.3749,105,36,76,0.5940,0
 26, 1, 195, S1-15.jpg, 1, [10 240 94], green, 1, 289, 2, 0, 3.3977, 4, 0.3395, 3.3998,90,50,78,0.5940,0
 26, 1, 196, S2-19.jpg, 2, [10 240 94], green, 0, 293, 2, 1, 3.4417, 4, 0.8112, 3.4438,85,25,99,0.6772,1
 26, 1, 197, S1-15.jpg, 1, [10 240 94], green, 1, 264, 2, 0, 3.1008, 2, 0.6368, 3.1030,113,37,91,0.5940,0
 26, 1, 198, S2-19.jpg, 2, [10 240 94], green, 0, 328, 1, 0, 3.8531, 2, 0.5954, 3.8549,87,27,93,0.6772,0
 26, 1, 199, S2-19.jpg, 2, [240 168 10], orange, 1, 352, 2, 1, 4.1394, 4, 0.4490, 4.1412,90,40,88,0.6772,0
 26, 1, 200, S1-15.jpg, 1, [10 240 94], green, 1, 396, 1, 1, 4.6517, 3, 0.7339, 4.6538,130,46,79,0.5940,0
 26, 1, 201, S1-15.jpg, 1, [181 10 240], purple, NaN, 296, 2, 0, 3.4859, 3, 0.9792, 3.4880,122,55,87,0.5940,0
 26, 1, 202, S1-15.jpg, 1, [181 10 240], purple, NaN, 349, 1, 1, 4.1189, 2, 0.3359, 4.1210,88,143,85,0.5940,0
 26, 1, 203, S1-15.jpg, 1, [240 168 10], orange, 0, 326, 2, 0, 3.8248, 2, 0.2463, 3.8269,79,44,108,0.5940,0
 26, 1, 204, S1-15.jpg, 1, [240 168 10], orange, 0, 409, 1, 1, 4.8516, 2, 0.5392, 4.8537,108,66,77,0.5940,0
 26, 1, 205, S1-15.jpg, 1, [10 240 94], green, 1, 395, 2, 0, 4.6446, 2, 0.4582, 4.6467,78,24,86,0.5940,0
 26, 1, 206, S2-19.jpg, 2, [10 240 94], green, 0, 331, 2, 1, 3.9111, 3, 0.2882, 3.9133,96,38,78,0.6772,0
 26, 1, 207, S1-15.jpg, 1, [10 240 94], green, 1, 351, 1, 1, 4.1423, 3, 0.2737, 4.1441,85,25,92,0.5940,0
 26, 1, 208, S1-15.jpg, 1, [10 240 94], green, 1, 327, 1, 1, 3.8397, 3, 0.2182, 3.8419,76,82,82,0.5940,0
 26, 1, 209, S1-15.jpg, 1, [10 240 94], green, 1, 532, 1, 1, 6.2713, 3, 0.2418, 6.2732,117,23,104,0.5940,0
 26, 1, 210, S1-15.jpg, 1, [240 168 10], orange, 0, 277, 2, 0, 3.2585, 4, 0.6484, 3.2606,75,41,76,0.5940,0
 26, 1, 211, S2-19.jpg, 2, [240 168 10], orange, 1, 359, 1, 0, 4.2242, 2, 0.2219, 4.2264,123,23,100,0.6772,0
 26, 1, 212, S1-15.jpg, 1, [10 240 94], green, 1, 391, 1, 1, 4.6066, 3, 0.2398, 4.6087,99,30,86,0.5940,0
 26, 1, 213, S1-15.jpg, 1, [10 240 94], green, 1, 370, 1, 1, 4.3536, 2, 0.2448, 4.3558,81,34,75,0.5940,0
 26, 1, 214, S1-15.jpg, 1, [10 240 94], green, 1, 424, 1, 1, 4.9862, 3, 0.1030, 4.9881,101,31,88,0.5940,0
 26, 1, 215, S1-15.jpg, 1, [10 240 94], green, 1, 338, 1, 1, 3.9756, 3, 0.2223, 3.9774,101,35,89,0.5940,0
 26, 1, 216, S1-15.jpg, 1, [10 240 94], green, 1, 394, 1, 1, 4.6372, 2, 0.1822, 4.6393,97,26,96,0.5940,0
 26, 1, 217, S1-15.jpg, 1, [181 10 240], purple, NaN, 429, 2, 0, 5.0500, 3, 0.2762, 5.0522,82,61,106,0.5940,0
 26, 1, 218, S2-19.jpg, 2, [240 168 10], orange, 1, 359, 2, 1, 4.2162, 3, 0.0011, 4.2183,77,45,80,0.6772,0
 26, 1, 219, S1-15.jpg, 1, [10 240 94], green, 1, 441, 1, 1, 5.2318, 3, 0.1067, 5.2339,124,34,81,0.5940,0
 26, 1, 220, S1-15.jpg, 1, [240 168 10], orange, 0, 409, 1, 1, 4.8038, 2, 0.4005, 4.8057,87,46,143,0.5940,0
 26, 1, 221, S2-19.jpg, 2, [240 168 10], orange, 1, 333, 1, 0, 3.9321, 1, 0.2682, 3.9341,105,65,77,0.6772,0
 26, 1, 222, S2-19.jpg, 2, [240 168 10], orange, 1, 217, 1, 0, 2.5494, 3, 0.4407, 2.5512,76,68,129,0.6772,1
 26, 1, 223, S2-19.jpg, 2, [240 168 10], orange, 1, 418, 1, 0, 4.9074, 3, 0.1011, 4.9095,79,37,94,0.6772,0
 26, 1, 224, S1-15.jpg, 1, [181 10 240], purple, NaN, 368, 1, 1, 4.3291, 3, 0.5894, 4.3312,104,35,116,0.5940,1
 26, 1, 225, S2-19.jpg, 2, [240 168 10], orange, 1, 474, 2, 1, 5.5712, 3, 0.3825, 5.5729,78,27,98,0.6772,0
 26, 1, 226, S1-15.jpg, 1, [240 168 10], orange, 0, 353, 2, 0, 4.1629, 4, 0.5074, 4.1647,80,30,139,0.5940,0
 26, 1, 227, S2-19.jpg, 2, [240 168 10], orange, 1, 355, 1, 0, 4.1806, 3, 0.3376, 4.1825,105,24,111,0.6772,0
 26, 1, 228, S2-19.jpg, 2, [181 10 240], purple, NaN, 376, 2, 1, 4.4207, 3, 0.0409, 4.4228,94,43,84,0.6772,0
 26, 1, 229, S2-19.jpg, 2, [240 168 10], orange, 1, 313, 2, 1, 3.6922, 3, 0.2164, 3.6944,132,34,76,0.6772,0
 26, 1, 230, S1-15.jpg, 1, [240 168 10], orange, 0, 362, 2, 0, 4.2584, 3, 0.2286, 4.2605,85,47,104,0.5940,0
 26, 1, 231, S2-19.jpg, 2, [181 10 240], purple, NaN, 376, 2, 1, 4.4468, 3, 0.5845, 4.4491,120,60,105,0.6772,0
 26, 1, 232, S2-19.jpg, 2, [240 168 10], orange, 1, 366, 2, 1, 4.3292, 3, 0.3752, 4.3312,81,70,84,0.6772,0
 26, 1, 233, S2-19.jpg, 2, [240 168 10], orange, 1, 358, 2, 1, 4.2412, 4, 0.5574, 4.2432,77,24,118,0.6772,0
 26, 1, 234, S1-15.jpg, 1, [240 168 10], orange, 0, 325, 2, 0, 3.8362, 4, 2.0414, 3.8382,98,31,87,0.5940,0
 26, 1, 235, S1-15.jpg, 1, [10 240 94], green, 1, 408, 2, 0, 4.8094, 3, 0.2692, 4.8115,86,38,77,0.5940,0
 26, 1, 236, S2-19.jpg, 2, [240 168 10], orange, 1, 392, 2, 1, 4.6180, 3, 0.2666, 4.6200,90,56,91,0.6772,0
 26, 1, 237, S2-19.jpg, 2, [240 168 10], orange, 1, 426, 2, 1, 5.0346, 2, 0.7686, 5.0365,79,69,78,0.6772,0
 26, 1, 238, S2-19.jpg, 2, [10 240 94], green, 0, 515, 2, 1, 6.0491, 2, 0.6939, 6.0510,101,84,99,0.6772,0
 26, 1, 239, S1-15.jpg, 1, [10 240 94], green, 1, 317, 1, 1, 3.7731, 4, 0.6038, 3.7751,87,57,94,0.5940,0
 26, 1, 240, S1-15.jpg, 1, [240 168 10], orange, 0, 377, 1, 1, 4.6803, 3, 0.4859, 4.6822,195,24,83,0.5940,1
 26, 1, 241, S2-19.jpg, 2, [240 168 10], orange, 1, 311, 2, 1, 3.6721, 3, 0.1269, 3.6743,81,27,96,0.6772,0
 26, 1, 242, S1-15.jpg, 1, [181 10 240], purple, NaN, 171, 2, 0, 2.0114, 3, 0.1987, 2.0132,77,80,106,0.5940,0
 26, 1, 243, S1-15.jpg, 1, [240 168 10], orange, 0, 239, 1, 1, 2.8090, 3, 0.0709, 2.8110,77,143,108,0.5940,0
 26, 1, 244, S1-15.jpg, 1, [10 240 94], green, 1, 272, 1, 1, 3.2204, 3, 0.2379, 3.2225,83,35,101,0.5940,0
 26, 1, 245, S1-15.jpg, 1, [181 10 240], purple, NaN, 377, 1, 1, 4.4293, 2, 0.2277, 4.4311,92,25,79,0.5940,0
 26, 1, 246, S2-19.jpg, 2, [240 168 10], orange, 1, 379, 1, 0, 4.4736, 4, 1.1927, 4.4753,79,33,123,0.6772,0
 26, 1, 247, S2-19.jpg, 2, [240 168 10], orange, 1, 346, 1, 0, 4.0949, 4, 0.5581, 4.0970,90,28,77,0.6772,0
 26, 1, 248, S2-19.jpg, 2, [240 168 10], orange, 1, 357, 2, 1, 4.2098, 4, 1.6436, 4.2119,88,25,96,0.6772,0
 26, 1, 249, S1-15.jpg, 1, [10 240 94], green, 1, 293, 1, 1, 3.4668, 4, 0.8272, 3.4689,84,27,101,0.5940,1
 26, 1, 250, S2-19.jpg, 2, [240 168 10], orange, 1, 371, 2, 1, 4.3662, 2, 0.0570, 4.3683,81,29,78,0.6772,0
 26, 1, 251, S2-19.jpg, 2, [10 240 94], green, 0, NaN, 1, 0, 6.4046, 3, 0.1250, 6.3617,85,72,93,0.6772,0
 26, 1, 252, S1-15.jpg, 1, [10 240 94], green, 1, 538, 2, 0, 6.3974, 2, 0.5624, 6.3995,79,39,78,0.5940,0
 26, 1, 253, S1-15.jpg, 1, [10 240 94], green, 1, 483, 2, 0, 5.7255, 3, 0.2010, 5.7273,91,31,107,0.5940,0
 26, 1, 254, S1-15.jpg, 1, [10 240 94], green, 1, 494, 1, 1, 5.8298, 3, 0.0012, 5.8319,93,42,82,0.5940,0
 26, 1, 255, S2-19.jpg, 2, [240 168 10], orange, 1, 486, 1, 0, 5.7454, 3, 0.0152, 5.7473,84,28,89,0.6772,1
 26, 1, 256, S2-19.jpg, 2, [240 168 10], orange, 1, 500, 1, 0, 5.8951, 3, 0.2892, 5.8972,86,81,90,0.6772,1
 26, 1, 257, S1-15.jpg, 1, [181 10 240], purple, NaN, 348, 2, 0, 4.0910, 3, 0.0967, 4.0928,77,30,76,0.5940,0
 26, 1, 258, S2-19.jpg, 2, [240 168 10], orange, 1, 452, 1, 0, 5.3181, 3, 0.2946, 5.3199,76,29,79,0.6772,0
 26, 1, 259, S1-15.jpg, 1, [10 240 94], green, 1, NaN, 1, 1, 6.7087, 1, 0.3226, 6.3813,98,26,77,0.5940,0
 26, 1, 260, S1-15.jpg, 1, [10 240 94], green, 1, 262, 1, 1, 3.0733, 2, 0.5193, 3.0749,80,66,94,0.5940,0
 26, 1, 261, S1-15.jpg, 1, [10 240 94], green, 1, 237, 1, 1, 2.7826, 3, 0.1068, 2.7844,110,30,79,0.5940,0
 26, 1, 262, S1-15.jpg, 1, [181 10 240], purple, NaN, 314, 1, 1, 3.7247, 3, 0.0691, 3.7266,95,24,97,0.5940,0
 26, 1, 263, S2-19.jpg, 2, [240 168 10], orange, 1, 329, 2, 1, 3.8819, 4, 0.4571, 3.8840,80,43,79,0.6772,0
 26, 1, 264, S1-15.jpg, 1, [181 10 240], purple, NaN, 412, 1, 1, 4.8809, 3, 0.3612, 4.8827,135,78,82,0.5940,0
 26, 1, 265, S1-15.jpg, 1, [10 240 94], green, 1, 397, 1, 1, 4.6709, 4, 0.3065, 4.6730,89,29,98,0.5940,0
 26, 1, 266, S1-15.jpg, 1, [10 240 94], green, 1, 426, 1, 1, 5.0292, 3, 0.4183, 5.0308,81,26,78,0.5940,0
 26, 1, 267, S2-19.jpg, 2, [240 168 10], orange, 1, 364, 2, 1, 4.2923, 4, 0.3856, 4.2941,94,33,81,0.6772,0
 26, 1, 268, S2-19.jpg, 2, [181 10 240], purple, NaN, 369, 1, 0, 4.3732, 3, 0.1695, 4.3753,79,26,93,0.6772,0
 26, 1, 269, S2-19.jpg, 2, [240 168 10], orange, 1, 394, 1, 0, 4.6369, 4, 0.8678, 4.6390,142,63,92,0.6772,0
 26, 1, 270, S2-19.jpg, 2, [240 168 10], orange, 1, 289, 1, 0, 3.4081, 3, 0.3420, 3.4102,82,26,77,0.6772,0
 26, 1, 271, S1-15.jpg, 1, [10 240 94], green, 1, 355, 1, 1, 4.1821, 4, 0.5126, 4.1840,143,38,103,0.5940,0
 26, 1, 272, S1-15.jpg, 1, [181 10 240], purple, NaN, 348, 1, 1, 4.1074, 4, 0.3445, 4.1093,81,28,104,0.5940,0
 26, 1, 273, S1-15.jpg, 1, [10 240 94], green, 1, 333, 1, 1, 3.9085, 3, 0.5683, 3.9103,95,25,82,0.5940,0
 26, 1, 274, S1-15.jpg, 1, [240 168 10], orange, 0, 384, 1, 1, 4.5296, 3, 0.3881, 4.5318,80,71,86,0.5940,0
 26, 1, 275, S1-15.jpg, 1, [181 10 240], purple, NaN, 422, 1, 1, 4.9815, 3, 0.3839, 4.9836,80,30,134,0.5940,0
 26, 1, 276, S2-19.jpg, 2, [240 168 10], orange, 1, 433, 1, 0, 5.1635, 2, 0.0011, 5.1655,125,25,135,0.6772,0